Agilent E1733A Dimensional Metrology Software
Raw Data

Measurement Type,Lin. Time Base
Filename,UserLast.LTB
Date of Test,22/06/2022 10:59:41 AM
Machine Name,
Machine Serial No.,
Interval,10 ms
Start Timer,Manual
Stop Timer,Manual
Total Time,10000 sec
No. of Points,1000001
Expans. Coeff.,11.7 ppm/C
Calibration Factor,1

          ,Start,End,Max,Min,Mean
    AT (C),20.00,20.00,20.00,20.00,20.00
 AP (mmHg),760.0,760.0,760.0,760.0,760.0
    RH (%),50,50,50,50,50
   MT1 (C),20.00,20.00,20.00,20.00,20.00
   MT2 (C),20.00,20.00,20.00,20.00,20.00
   MT3 (C),20.00,20.00,20.00,20.00,20.00

Time(s),Linear(mm)
0.00,0.00091
0.01,0.00119
0.02,0.00059
0.03,0.00101
0.04,0.00104
0.05,0.00065
0.06,0.00113
0.07,0.00083
0.08,0.00082
0.09,0.00115
0.10,0.00059
0.11,0.00081
0.12,0.00121
0.13,0.00074
0.14,0.00096
0.15,0.00083
0.16,0.00072
0.17,0.00127
0.18,0.00085
0.19,0.00070
0.20,0.00113
0.21,0.00081
0.22,0.00093
0.23,0.00104
0.24,0.00064
0.25,0.00105
0.26,0.00097
0.27,0.00051
0.28,0.00119
0.29,0.00105
0.30,0.00088
0.31,0.00102
0.32,0.00070
0.33,0.00118
0.34,0.00124
0.35,0.00054
0.36,0.00096
0.37,0.00103
0.38,0.00075
0.39,0.00107
0.40,0.00077
0.41,0.00084
0.42,0.00124
0.43,0.00065
0.44,0.00109
0.45,0.00135
0.46,0.00066
0.47,0.00085
0.48,0.00095
0.49,0.00097
0.50,0.00140
0.51,0.00065
0.52,0.00057
0.53,0.00120
0.54,0.00098
0.55,0.00098
0.56,0.00104
0.57,0.00063
0.58,0.00116
0.59,0.00109
0.60,0.00073
0.61,0.00124
0.62,0.00074
0.63,0.00080
0.64,0.00122
0.65,0.00079
0.66,0.00092
0.67,0.00098
0.68,0.00065
0.69,0.00123
0.70,0.00106
0.71,0.00063
0.72,0.00120
0.73,0.00091
0.74,0.00088
0.75,0.00112
0.76,0.00068
0.77,0.00105
0.78,0.00121
0.79,0.00071
0.80,0.00103
0.81,0.00092
0.82,0.00076
0.83,0.00130
0.84,0.00091
0.85,0.00084
0.86,0.00109
0.87,0.00081
0.88,0.00125
0.89,0.00122
0.90,0.00057
0.91,0.00100
0.92,0.00109
0.93,0.00089
0.94,0.00128
0.95,0.00070
0.96,0.00080
0.97,0.00126
0.98,0.00075
0.99,0.00112
1.00,0.00120
1.01,0.00067
1.02,0.00097
1.03,0.00112
1.04,0.00095
1.05,0.00137
1.06,0.00067
1.07,0.00082
1.08,0.00127
1.09,0.00084
1.10,0.00108
1.11,0.00101
1.12,0.00078
1.13,0.00124
1.14,0.00109
1.15,0.00077
1.16,0.00130
1.17,0.00088
1.18,0.00107
1.19,0.00121
1.20,0.00068
1.21,0.00107
1.22,0.00113
1.23,0.00077
1.24,0.00121
1.25,0.00107
1.26,0.00081
1.27,0.00130
1.28,0.00092
1.29,0.00100
1.30,0.00128
1.31,0.00077
1.32,0.00119
1.33,0.00118
1.34,0.00072
1.35,0.00108
1.36,0.00102
1.37,0.00104
1.38,0.00140
1.39,0.00079
1.40,0.00096
1.41,0.00137
1.42,0.00079
1.43,0.00119
1.44,0.00117
1.45,0.00082
1.46,0.00135
1.47,0.00093
1.48,0.00088
1.49,0.00136
1.50,0.00099
1.51,0.00088
1.52,0.00127
1.53,0.00094
1.54,0.00122
1.55,0.00098
1.56,0.00065
1.57,0.00134
1.58,0.00118
1.59,0.00084
1.60,0.00105
1.61,0.00092
1.62,0.00118
1.63,0.00131
1.64,0.00075
1.65,0.00124
1.66,0.00130
1.67,0.00083
1.68,0.00121
1.69,0.00092
1.70,0.00092
1.71,0.00130
1.72,0.00083
1.73,0.00113
1.74,0.00138
1.75,0.00069
1.76,0.00108
1.77,0.00129
1.78,0.00102
1.79,0.00123
1.80,0.00077
1.81,0.00102
1.82,0.00148
1.83,0.00081
1.84,0.00076
1.85,0.00124
1.86,0.00097
1.87,0.00122
1.88,0.00091
1.89,0.00076
1.90,0.00141
1.91,0.00098
1.92,0.00088
1.93,0.00125
1.94,0.00084
1.95,0.00092
1.96,0.00121
1.97,0.00088
1.98,0.00138
1.99,0.00108
2.00,0.00072
2.01,0.00144
2.02,0.00104
2.03,0.00085
2.04,0.00114
2.05,0.00091
2.06,0.00117
2.07,0.00124
2.08,0.00068
2.09,0.00116
2.10,0.00121
2.11,0.00090
2.12,0.00134
2.13,0.00092
2.14,0.00100
2.15,0.00136
2.16,0.00089
2.17,0.00112
2.18,0.00124
2.19,0.00075
2.20,0.00109
2.21,0.00107
2.22,0.00088
2.23,0.00143
2.24,0.00093
2.25,0.00093
2.26,0.00144
2.27,0.00098
2.28,0.00109
2.29,0.00119
2.30,0.00087
2.31,0.00136
2.32,0.00117
2.33,0.00077
2.34,0.00130
2.35,0.00100
2.36,0.00102
2.37,0.00134
2.38,0.00093
2.39,0.00115
2.40,0.00122
2.41,0.00087
2.42,0.00133
2.43,0.00128
2.44,0.00078
2.45,0.00130
2.46,0.00094
2.47,0.00110
2.48,0.00135
2.49,0.00084
2.50,0.00112
2.51,0.00136
2.52,0.00094
2.53,0.00133
2.54,0.00113
2.55,0.00092
2.56,0.00141
2.57,0.00110
2.58,0.00104
2.59,0.00130
2.60,0.00090
2.61,0.00116
2.62,0.00139
2.63,0.00093
2.64,0.00116
2.65,0.00110
2.66,0.00102
2.67,0.00151
2.68,0.00096
2.69,0.00096
2.70,0.00153
2.71,0.00102
2.72,0.00105
2.73,0.00116
2.74,0.00090
2.75,0.00142
2.76,0.00114
2.77,0.00085
2.78,0.00145
2.79,0.00116
2.80,0.00113
2.81,0.00141
2.82,0.00093
2.83,0.00116
2.84,0.00122
2.85,0.00092
2.86,0.00139
2.87,0.00119
2.88,0.00070
2.89,0.00133
2.90,0.00122
2.91,0.00122
2.92,0.00136
2.93,0.00082
2.94,0.00122
2.95,0.00141
2.96,0.00088
2.97,0.00122
2.98,0.00126
2.99,0.00092
3.00,0.00120
3.01,0.00094
3.02,0.00108
3.03,0.00155
3.04,0.00088
3.05,0.00119
3.06,0.00152
3.07,0.00114
3.08,0.00126
3.09,0.00110
3.10,0.00088
3.11,0.00143
3.12,0.00111
3.13,0.00101
3.14,0.00151
3.15,0.00092
3.16,0.00118
3.17,0.00148
3.18,0.00119
3.19,0.00148
3.20,0.00126
3.21,0.00093
3.22,0.00147
3.23,0.00113
3.24,0.00092
3.25,0.00144
3.26,0.00095
3.27,0.00131
3.28,0.00130
3.29,0.00089
3.30,0.00140
3.31,0.00146
3.32,0.00112
3.33,0.00140
3.34,0.00109
3.35,0.00100
3.36,0.00149
3.37,0.00087
3.38,0.00116
3.39,0.00132
3.40,0.00085
3.41,0.00131
3.42,0.00132
3.43,0.00105
3.44,0.00152
3.45,0.00134
3.46,0.00120
3.47,0.00154
3.48,0.00091
3.49,0.00098
3.50,0.00137
3.51,0.00098
3.52,0.00139
3.53,0.00123
3.54,0.00085
3.55,0.00139
3.56,0.00130
3.57,0.00122
3.58,0.00158
3.59,0.00108
3.60,0.00122
3.61,0.00130
3.62,0.00080
3.63,0.00127
3.64,0.00127
3.65,0.00089
3.66,0.00132
3.67,0.00119
3.68,0.00114
3.69,0.00163
3.70,0.00106
3.71,0.00119
3.72,0.00151
3.73,0.00097
3.74,0.00131
3.75,0.00124
3.76,0.00088
3.77,0.00137
3.78,0.00131
3.79,0.00117
3.80,0.00156
3.81,0.00099
3.82,0.00124
3.83,0.00147
3.84,0.00106
3.85,0.00145
3.86,0.00140
3.87,0.00095
3.88,0.00135
3.89,0.00114
3.90,0.00115
3.91,0.00162
3.92,0.00103
3.93,0.00111
3.94,0.00149
3.95,0.00102
3.96,0.00139
3.97,0.00140
3.98,0.00106
3.99,0.00152
4.00,0.00122
4.01,0.00100
4.02,0.00150
4.03,0.00112
4.04,0.00112
4.05,0.00145
4.06,0.00102
4.07,0.00138
4.08,0.00131
4.09,0.00090
4.10,0.00152
4.11,0.00144
4.12,0.00122
4.13,0.00148
4.14,0.00103
4.15,0.00122
4.16,0.00151
4.17,0.00091
4.18,0.00132
4.19,0.00144
4.20,0.00101
4.21,0.00136
4.22,0.00121
4.23,0.00105
4.24,0.00165
4.25,0.00125
4.26,0.00114
4.27,0.00147
4.28,0.00102
4.29,0.00141
4.30,0.00152
4.31,0.00107
4.32,0.00134
4.33,0.00122
4.34,0.00112
4.35,0.00159
4.36,0.00105
4.37,0.00103
4.38,0.00149
4.39,0.00119
4.40,0.00151
4.41,0.00123
4.42,0.00086
4.43,0.00160
4.44,0.00150
4.45,0.00114
4.46,0.00137
4.47,0.00119
4.48,0.00120
4.49,0.00164
4.50,0.00105
4.51,0.00135
4.52,0.00140
4.53,0.00093
4.54,0.00147
4.55,0.00140
4.56,0.00105
4.57,0.00130
4.58,0.00124
4.59,0.00140
4.60,0.00167
4.61,0.00080
4.62,0.00124
4.63,0.00156
4.64,0.00124
4.65,0.00150
4.66,0.00106
4.67,0.00111
4.68,0.00167
4.69,0.00119
4.70,0.00104
4.71,0.00148
4.72,0.00105
4.73,0.00135
4.74,0.00153
4.75,0.00106
4.76,0.00148
4.77,0.00132
4.78,0.00117
4.79,0.00163
4.80,0.00120
4.81,0.00103
4.82,0.00151
4.83,0.00119
4.84,0.00140
4.85,0.00138
4.86,0.00094
4.87,0.00156
4.88,0.00140
4.89,0.00110
4.90,0.00150
4.91,0.00125
4.92,0.00125
4.93,0.00162
4.94,0.00104
4.95,0.00138
4.96,0.00150
4.97,0.00091
4.98,0.00152
4.99,0.00137
5.00,0.00117
5.01,0.00152
5.02,0.00115
5.03,0.00128
5.04,0.00169
5.05,0.00117
5.06,0.00121
5.07,0.00146
5.08,0.00107
5.09,0.00152
5.10,0.00128
5.11,0.00109
5.12,0.00157
5.13,0.00119
5.14,0.00119
5.15,0.00157
5.16,0.00129
5.17,0.00140
5.18,0.00141
5.19,0.00096
5.20,0.00163
5.21,0.00133
5.22,0.00089
5.23,0.00145
5.24,0.00127
5.25,0.00136
5.26,0.00150
5.27,0.00105
5.28,0.00145
5.29,0.00170
5.30,0.00109
5.31,0.00151
5.32,0.00140
5.33,0.00104
5.34,0.00158
5.35,0.00119
5.36,0.00121
5.37,0.00144
5.38,0.00100
5.39,0.00145
5.40,0.00160
5.41,0.00098
5.42,0.00144
5.43,0.00148
5.44,0.00138
5.45,0.00171
5.46,0.00103
5.47,0.00118
5.48,0.00167
5.49,0.00120
5.50,0.00122
5.51,0.00129
5.52,0.00103
5.53,0.00164
5.54,0.00140
5.55,0.00108
5.56,0.00162
5.57,0.00136
5.58,0.00132
5.59,0.00156
5.60,0.00109
5.61,0.00131
5.62,0.00151
5.63,0.00102
5.64,0.00151
5.65,0.00129
5.66,0.00107
5.67,0.00160
5.68,0.00125
5.69,0.00137
5.70,0.00152
5.71,0.00113
5.72,0.00149
5.73,0.00170
5.74,0.00108
5.75,0.00131
5.76,0.00125
5.77,0.00120
5.78,0.00174
5.79,0.00113
5.80,0.00125
5.81,0.00161
5.82,0.00120
5.83,0.00151
5.84,0.00151
5.85,0.00104
5.86,0.00146
5.87,0.00138
5.88,0.00120
5.89,0.00165
5.90,0.00103
5.91,0.00122
5.92,0.00166
5.93,0.00138
5.94,0.00135
5.95,0.00136
5.96,0.00095
5.97,0.00168
5.98,0.00154
5.99,0.00114
6.00,0.00152
6.01,0.00113
6.02,0.00134
6.03,0.00148
6.04,0.00118
6.05,0.00144
6.06,0.00159
6.07,0.00112
6.08,0.00167
6.09,0.00142
6.10,0.00108
6.11,0.00158
6.12,0.00131
6.13,0.00142
6.14,0.00150
6.15,0.00098
6.16,0.00143
6.17,0.00166
6.18,0.00117
6.19,0.00152
6.20,0.00135
6.21,0.00125
6.22,0.00176
6.23,0.00120
6.24,0.00138
6.25,0.00161
6.26,0.00114
6.27,0.00142
6.28,0.00152
6.29,0.00115
6.30,0.00149
6.31,0.00141
6.32,0.00124
6.33,0.00171
6.34,0.00123
6.35,0.00130
6.36,0.00163
6.37,0.00115
6.38,0.00158
6.39,0.00153
6.40,0.00115
6.41,0.00147
6.42,0.00137
6.43,0.00125
6.44,0.00180
6.45,0.00115
6.46,0.00122
6.47,0.00163
6.48,0.00124
6.49,0.00157
6.50,0.00143
6.51,0.00111
6.52,0.00167
6.53,0.00152
6.54,0.00121
6.55,0.00157
6.56,0.00118
6.57,0.00133
6.58,0.00163
6.59,0.00120
6.60,0.00154
6.61,0.00141
6.62,0.00103
6.63,0.00171
6.64,0.00156
6.65,0.00134
6.66,0.00149
6.67,0.00108
6.68,0.00139
6.69,0.00177
6.70,0.00110
6.71,0.00135
6.72,0.00148
6.73,0.00124
6.74,0.00166
6.75,0.00134
6.76,0.00130
6.77,0.00176
6.78,0.00121
6.79,0.00128
6.80,0.00165
6.81,0.00112
6.82,0.00138
6.83,0.00136
6.84,0.00120
6.85,0.00176
6.86,0.00142
6.87,0.00116
6.88,0.00164
6.89,0.00131
6.90,0.00144
6.91,0.00169
6.92,0.00108
6.93,0.00153
6.94,0.00138
6.95,0.00099
6.96,0.00167
6.97,0.00145
6.98,0.00128
6.99,0.00150
7.00,0.00114
7.01,0.00155
7.02,0.00181
7.03,0.00110
7.04,0.00142
7.05,0.00145
7.06,0.00124
7.07,0.00160
7.08,0.00125
7.09,0.00126
7.10,0.00164
7.11,0.00122
7.12,0.00145
7.13,0.00170
7.14,0.00112
7.15,0.00145
7.16,0.00144
7.17,0.00124
7.18,0.00167
7.19,0.00118
7.20,0.00120
7.21,0.00179
7.22,0.00130
7.23,0.00133
7.24,0.00161
7.25,0.00124
7.26,0.00164
7.27,0.00142
7.28,0.00106
7.29,0.00168
7.30,0.00139
7.31,0.00126
7.32,0.00157
7.33,0.00122
7.34,0.00153
7.35,0.00170
7.36,0.00120
7.37,0.00167
7.38,0.00140
7.39,0.00112
7.40,0.00171
7.41,0.00141
7.42,0.00133
7.43,0.00149
7.44,0.00112
7.45,0.00154
7.46,0.00185
7.47,0.00118
7.48,0.00154
7.49,0.00144
7.50,0.00136
7.51,0.00185
7.52,0.00131
7.53,0.00119
7.54,0.00153
7.55,0.00137
7.56,0.00157
7.57,0.00160
7.58,0.00097
7.59,0.00150
7.60,0.00166
7.61,0.00143
7.62,0.00182
7.63,0.00120
7.64,0.00128
7.65,0.00162
7.66,0.00121
7.67,0.00152
7.68,0.00160
7.69,0.00109
7.70,0.00158
7.71,0.00155
7.72,0.00127
7.73,0.00180
7.74,0.00130
7.75,0.00139
7.76,0.00164
7.77,0.00128
7.78,0.00145
7.79,0.00157
7.80,0.00117
7.81,0.00162
7.82,0.00144
7.83,0.00125
7.84,0.00178
7.85,0.00134
7.86,0.00139
7.87,0.00165
7.88,0.00121
7.89,0.00167
7.90,0.00160
7.91,0.00114
7.92,0.00149
7.93,0.00143
7.94,0.00120
7.95,0.00178
7.96,0.00136
7.97,0.00147
7.98,0.00167
7.99,0.00119
8.00,0.00156
8.01,0.00174
8.02,0.00125
8.03,0.00149
8.04,0.00138
8.05,0.00129
8.06,0.00192
8.07,0.00129
8.08,0.00124
8.09,0.00167
8.10,0.00133
8.11,0.00167
8.12,0.00158
8.13,0.00126
8.14,0.00170
8.15,0.00149
8.16,0.00125
8.17,0.00180
8.18,0.00134
8.19,0.00133
8.20,0.00160
8.21,0.00129
8.22,0.00177
8.23,0.00158
8.24,0.00121
8.25,0.00168
8.26,0.00163
8.27,0.00133
8.28,0.00169
8.29,0.00132
8.30,0.00151
8.31,0.00169
8.32,0.00113
8.33,0.00165
8.34,0.00172
8.35,0.00126
8.36,0.00160
8.37,0.00146
8.38,0.00149
8.39,0.00183
8.40,0.00131
8.41,0.00154
8.42,0.00183
8.43,0.00114
8.44,0.00152
8.45,0.00162
8.46,0.00139
8.47,0.00174
8.48,0.00129
8.49,0.00133
8.50,0.00195
8.51,0.00147
8.52,0.00141
8.53,0.00171
8.54,0.00131
8.55,0.00177
8.56,0.00155
8.57,0.00122
8.58,0.00176
8.59,0.00145
8.60,0.00137
8.61,0.00185
8.62,0.00139
8.63,0.00151
8.64,0.00169
8.65,0.00132
8.66,0.00181
8.67,0.00162
8.68,0.00121
8.69,0.00181
8.70,0.00154
8.71,0.00135
8.72,0.00175
8.73,0.00142
8.74,0.00155
8.75,0.00175
8.76,0.00120
8.77,0.00173
8.78,0.00180
8.79,0.00136
8.80,0.00177
8.81,0.00139
8.82,0.00145
8.83,0.00184
8.84,0.00145
8.85,0.00145
8.86,0.00170
8.87,0.00125
8.88,0.00182
8.89,0.00165
8.90,0.00135
8.91,0.00188
8.92,0.00145
8.93,0.00144
8.94,0.00174
8.95,0.00139
8.96,0.00158
8.97,0.00178
8.98,0.00120
8.99,0.00172
9.00,0.00166
9.01,0.00137
9.02,0.00179
9.03,0.00139
9.04,0.00147
9.05,0.00194
9.06,0.00141
9.07,0.00147
9.08,0.00168
9.09,0.00132
9.10,0.00184
9.11,0.00155
9.12,0.00129
9.13,0.00182
9.14,0.00154
9.15,0.00146
9.16,0.00175
9.17,0.00137
9.18,0.00168
9.19,0.00187
9.20,0.00122
9.21,0.00171
9.22,0.00153
9.23,0.00145
9.24,0.00195
9.25,0.00151
9.26,0.00141
9.27,0.00164
9.28,0.00140
9.29,0.00166
9.30,0.00188
9.31,0.00126
9.32,0.00175
9.33,0.00168
9.34,0.00147
9.35,0.00182
9.36,0.00137
9.37,0.00150
9.38,0.00196
9.39,0.00150
9.40,0.00153
9.41,0.00171
9.42,0.00127
9.43,0.00185
9.44,0.00173
9.45,0.00138
9.46,0.00180
9.47,0.00141
9.48,0.00156
9.49,0.00186
9.50,0.00156
9.51,0.00158
9.52,0.00166
9.53,0.00128
9.54,0.00184
9.55,0.00159
9.56,0.00120
9.57,0.00181
9.58,0.00159
9.59,0.00156
9.60,0.00167
9.61,0.00125
9.62,0.00170
9.63,0.00191
9.64,0.00127
9.65,0.00169
9.66,0.00154
9.67,0.00125
9.68,0.00170
9.69,0.00131
9.70,0.00147
9.71,0.00183
9.72,0.00127
9.73,0.00161
9.74,0.00180
9.75,0.00137
9.76,0.00163
9.77,0.00148
9.78,0.00139
9.79,0.00186
9.80,0.00126
9.81,0.00124
9.82,0.00176
9.83,0.00142
9.84,0.00154
9.85,0.00157
9.86,0.00139
9.87,0.00185
9.88,0.00154
9.89,0.00113
9.90,0.00187
9.91,0.00151
9.92,0.00134
9.93,0.00153
9.94,0.00128
9.95,0.00162
9.96,0.00167
9.97,0.00111
9.98,0.00172
9.99,0.00184
10.00,0.00132
10.01,0.00158
10.02,0.00128
10.03,0.00169
10.04,0.00195
10.05,0.00112
10.06,0.00139
10.07,0.00167
10.08,0.00133
10.09,0.00171
10.10,0.00152
10.11,0.00132
10.12,0.00183
10.13,0.00137
10.14,0.00155
10.15,0.00186
10.16,0.00119
10.17,0.00162
10.18,0.00174
10.19,0.00135
10.20,0.00163
10.21,0.00151
10.22,0.00130
10.23,0.00185
10.24,0.00149
10.25,0.00140
10.26,0.00181
10.27,0.00132
10.28,0.00164
10.29,0.00172
10.30,0.00135
10.31,0.00175
10.32,0.00167
10.33,0.00124
10.34,0.00175
10.35,0.00152
10.36,0.00157
10.37,0.00181
10.38,0.00120
10.39,0.00162
10.40,0.00180
10.41,0.00141
10.42,0.00169
10.43,0.00161
10.44,0.00134
10.45,0.00191
10.46,0.00146
10.47,0.00143
10.48,0.00186
10.49,0.00135
10.50,0.00165
10.51,0.00176
10.52,0.00142
10.53,0.00178
10.54,0.00160
10.55,0.00140
10.56,0.00190
10.57,0.00144
10.58,0.00143
10.59,0.00181
10.60,0.00133
10.61,0.00171
10.62,0.00167
10.63,0.00133
10.64,0.00188
10.65,0.00165
10.66,0.00130
10.67,0.00187
10.68,0.00155
10.69,0.00145
10.70,0.00185
10.71,0.00118
10.72,0.00164
10.73,0.00167
10.74,0.00133
10.75,0.00181
10.76,0.00161
10.77,0.00135
10.78,0.00186
10.79,0.00165
10.80,0.00154
10.81,0.00174
10.82,0.00122
10.83,0.00181
10.84,0.00176
10.85,0.00120
10.86,0.00163
10.87,0.00171
10.88,0.00146
10.89,0.00175
10.90,0.00142
10.91,0.00161
10.92,0.00201
10.93,0.00125
10.94,0.00163
10.95,0.00178
10.96,0.00139
10.97,0.00171
10.98,0.00151
10.99,0.00141
11.00,0.00184
11.01,0.00137
11.02,0.00151
11.03,0.00201
11.04,0.00140
11.05,0.00156
11.06,0.00172
11.07,0.00156
11.08,0.00187
11.09,0.00137
11.10,0.00124
11.11,0.00184
11.12,0.00157
11.13,0.00145
11.14,0.00178
11.15,0.00139
11.16,0.00179
11.17,0.00182
11.18,0.00144
11.19,0.00184
11.20,0.00155
11.21,0.00136
11.22,0.00191
11.23,0.00149
11.24,0.00125
11.25,0.00175
11.26,0.00142
11.27,0.00190
11.28,0.00177
11.29,0.00115
11.30,0.00181
11.31,0.00179
11.32,0.00162
11.33,0.00177
11.34,0.00136
11.35,0.00155
11.36,0.00191
11.37,0.00124
11.38,0.00143
11.39,0.00173
11.40,0.00150
11.41,0.00200
11.42,0.00157
11.43,0.00138
11.44,0.00187
11.45,0.00154
11.46,0.00160
11.47,0.00197
11.48,0.00143
11.49,0.00155
11.50,0.00157
11.51,0.00130
11.52,0.00192
11.53,0.00165
11.54,0.00137
11.55,0.00178
11.56,0.00155
11.57,0.00161
11.58,0.00182
11.59,0.00148
11.60,0.00180
11.61,0.00194
11.62,0.00129
11.63,0.00180
11.64,0.00157
11.65,0.00141
11.66,0.00182
11.67,0.00153
11.68,0.00160
11.69,0.00182
11.70,0.00129
11.71,0.00164
11.72,0.00201
11.73,0.00156
11.74,0.00191
11.75,0.00159
11.76,0.00148
11.77,0.00188
11.78,0.00140
11.79,0.00152
11.80,0.00188
11.81,0.00136
11.82,0.00152
11.83,0.00186
11.84,0.00151
11.85,0.00191
11.86,0.00163
11.87,0.00154
11.88,0.00217
11.89,0.00156
11.90,0.00143
11.91,0.00166
11.92,0.00147
11.93,0.00174
11.94,0.00181
11.95,0.00119
11.96,0.00178
11.97,0.00170
11.98,0.00154
11.99,0.00204
12.00,0.00158
12.01,0.00173
12.02,0.00194
12.03,0.00140
12.04,0.00153
12.05,0.00171
12.06,0.00136
12.07,0.00197
12.08,0.00165
12.09,0.00130
12.10,0.00182
12.11,0.00168
12.12,0.00189
12.13,0.00197
12.14,0.00135
12.15,0.00167
12.16,0.00191
12.17,0.00142
12.18,0.00174
12.19,0.00159
12.20,0.00145
12.21,0.00194
12.22,0.00151
12.23,0.00157
12.24,0.00194
12.25,0.00158
12.26,0.00176
12.27,0.00195
12.28,0.00150
12.29,0.00192
12.30,0.00153
12.31,0.00134
12.32,0.00202
12.33,0.00148
12.34,0.00158
12.35,0.00187
12.36,0.00147
12.37,0.00174
12.38,0.00181
12.39,0.00148
12.40,0.00211
12.41,0.00182
12.42,0.00132
12.43,0.00187
12.44,0.00158
12.45,0.00176
12.46,0.00178
12.47,0.00143
12.48,0.00171
12.49,0.00188
12.50,0.00149
12.51,0.00189
12.52,0.00181
12.53,0.00160
12.54,0.00207
12.55,0.00164
12.56,0.00172
12.57,0.00183
12.58,0.00128
12.59,0.00175
12.60,0.00202
12.61,0.00148
12.62,0.00167
12.63,0.00159
12.64,0.00162
12.65,0.00219
12.66,0.00160
12.67,0.00160
12.68,0.00207
12.69,0.00159
12.70,0.00166
12.71,0.00178
12.72,0.00145
12.73,0.00197
12.74,0.00171
12.75,0.00135
12.76,0.00186
12.77,0.00152
12.78,0.00178
12.79,0.00206
12.80,0.00154
12.81,0.00177
12.82,0.00178
12.83,0.00144
12.84,0.00197
12.85,0.00180
12.86,0.00142
12.87,0.00185
12.88,0.00152
12.89,0.00177
12.90,0.00190
12.91,0.00128
12.92,0.00177
12.93,0.00210
12.94,0.00169
12.95,0.00172
12.96,0.00169
12.97,0.00157
12.98,0.00205
12.99,0.00151
13.00,0.00151
13.01,0.00200
13.02,0.00157
13.03,0.00170
13.04,0.00177
13.05,0.00154
13.06,0.00200
13.07,0.00179
13.08,0.00143
13.09,0.00195
13.10,0.00156
13.11,0.00154
13.12,0.00201
13.13,0.00153
13.14,0.00176
13.15,0.00178
13.16,0.00143
13.17,0.00203
13.18,0.00174
13.19,0.00146
13.20,0.00201
13.21,0.00169
13.22,0.00164
13.23,0.00186
13.24,0.00143
13.25,0.00185
13.26,0.00188
13.27,0.00143
13.28,0.00193
13.29,0.00185
13.30,0.00161
13.31,0.00186
13.32,0.00162
13.33,0.00171
13.34,0.00209
13.35,0.00140
13.36,0.00170
13.37,0.00179
13.38,0.00154
13.39,0.00202
13.40,0.00181
13.41,0.00159
13.42,0.00199
13.43,0.00162
13.44,0.00162
13.45,0.00206
13.46,0.00145
13.47,0.00172
13.48,0.00181
13.49,0.00156
13.50,0.00203
13.51,0.00183
13.52,0.00149
13.53,0.00199
13.54,0.00179
13.55,0.00170
13.56,0.00199
13.57,0.00146
13.58,0.00182
13.59,0.00186
13.60,0.00152
13.61,0.00192
13.62,0.00173
13.63,0.00148
13.64,0.00202
13.65,0.00185
13.66,0.00173
13.67,0.00206
13.68,0.00151
13.69,0.00193
13.70,0.00198
13.71,0.00138
13.72,0.00176
13.73,0.00182
13.74,0.00159
13.75,0.00194
13.76,0.00170
13.77,0.00170
13.78,0.00220
13.79,0.00161
13.80,0.00178
13.81,0.00193
13.82,0.00160
13.83,0.00191
13.84,0.00170
13.85,0.00151
13.86,0.00196
13.87,0.00161
13.88,0.00154
13.89,0.00216
13.90,0.00171
13.91,0.00182
13.92,0.00186
13.93,0.00163
13.94,0.00210
13.95,0.00180
13.96,0.00136
13.97,0.00200
13.98,0.00182
13.99,0.00158
14.00,0.00192
14.01,0.00149
14.02,0.00191
14.03,0.00212
14.04,0.00155
14.05,0.00190
14.06,0.00181
14.07,0.00160
14.08,0.00205
14.09,0.00173
14.10,0.00155
14.11,0.00191
14.12,0.00150
14.13,0.00186
14.14,0.00205
14.15,0.00148
14.16,0.00193
14.17,0.00182
14.18,0.00161
14.19,0.00209
14.20,0.00166
14.21,0.00164
14.22,0.00203
14.23,0.00153
14.24,0.00171
14.25,0.00198
14.26,0.00155
14.27,0.00200
14.28,0.00180
14.29,0.00166
14.30,0.00201
14.31,0.00164
14.32,0.00161
14.33,0.00207
14.34,0.00167
14.35,0.00175
14.36,0.00190
14.37,0.00160
14.38,0.00203
14.39,0.00177
14.40,0.00152
14.41,0.00207
14.42,0.00183
14.43,0.00165
14.44,0.00195
14.45,0.00160
14.46,0.00188
14.47,0.00198
14.48,0.00146
14.49,0.00198
14.50,0.00191
14.51,0.00154
14.52,0.00200
14.53,0.00171
14.54,0.00178
14.55,0.00197
14.56,0.00148
14.57,0.00184
14.58,0.00210
14.59,0.00149
14.60,0.00186
14.61,0.00183
14.62,0.00162
14.63,0.00207
14.64,0.00158
14.65,0.00174
14.66,0.00209
14.67,0.00158
14.68,0.00171
14.69,0.00209
14.70,0.00167
14.71,0.00194
14.72,0.00174
14.73,0.00160
14.74,0.00219
14.75,0.00169
14.76,0.00166
14.77,0.00209
14.78,0.00168
14.79,0.00183
14.80,0.00202
14.81,0.00163
14.82,0.00205
14.83,0.00185
14.84,0.00153
14.85,0.00216
14.86,0.00175
14.87,0.00165
14.88,0.00202
14.89,0.00168
14.90,0.00199
14.91,0.00206
14.92,0.00153
14.93,0.00207
14.94,0.00193
14.95,0.00153
14.96,0.00209
14.97,0.00184
14.98,0.00185
14.99,0.00200
15.00,0.00153
15.01,0.00187
15.02,0.00221
15.03,0.00160
15.04,0.00196
15.05,0.00192
15.06,0.00169
15.07,0.00221
15.08,0.00168
15.09,0.00177
15.10,0.00210
15.11,0.00164
15.12,0.00190
15.13,0.00200
15.14,0.00164
15.15,0.00197
15.16,0.00193
15.17,0.00159
15.18,0.00222
15.19,0.00174
15.20,0.00176
15.21,0.00213
15.22,0.00173
15.23,0.00192
15.24,0.00187
15.25,0.00154
15.26,0.00205
15.27,0.00201
15.28,0.00155
15.29,0.00202
15.30,0.00184
15.31,0.00193
15.32,0.00215
15.33,0.00155
15.34,0.00189
15.35,0.00220
15.36,0.00159
15.37,0.00191
15.38,0.00183
15.39,0.00168
15.40,0.00214
15.41,0.00164
15.42,0.00180
15.43,0.00234
15.44,0.00169
15.45,0.00180
15.46,0.00208
15.47,0.00182
15.48,0.00203
15.49,0.00172
15.50,0.00149
15.51,0.00223
15.52,0.00177
15.53,0.00176
15.54,0.00205
15.55,0.00169
15.56,0.00193
15.57,0.00205
15.58,0.00172
15.59,0.00201
15.60,0.00184
15.61,0.00148
15.62,0.00214
15.63,0.00175
15.64,0.00167
15.65,0.00206
15.66,0.00166
15.67,0.00192
15.68,0.00203
15.69,0.00170
15.70,0.00200
15.71,0.00194
15.72,0.00153
15.73,0.00219
15.74,0.00184
15.75,0.00164
15.76,0.00189
15.77,0.00160
15.78,0.00196
15.79,0.00208
15.80,0.00155
15.81,0.00198
15.82,0.00201
15.83,0.00167
15.84,0.00204
15.85,0.00166
15.86,0.00180
15.87,0.00224
15.88,0.00155
15.89,0.00184
15.90,0.00194
15.91,0.00164
15.92,0.00215
15.93,0.00194
15.94,0.00155
15.95,0.00200
15.96,0.00178
15.97,0.00176
15.98,0.00213
15.99,0.00146
16.00,0.00182
16.01,0.00209
16.02,0.00183
16.03,0.00204
16.04,0.00179
16.05,0.00154
16.06,0.00223
16.07,0.00193
16.08,0.00179
16.09,0.00198
16.10,0.00147
16.11,0.00198
16.12,0.00208
16.13,0.00157
16.14,0.00198
16.15,0.00197
16.16,0.00172
16.17,0.00217
16.18,0.00181
16.19,0.00176
16.20,0.00220
16.21,0.00160
16.22,0.00199
16.23,0.00209
16.24,0.00150
16.25,0.00191
16.26,0.00196
16.27,0.00187
16.28,0.00214
16.29,0.00176
16.30,0.00176
16.31,0.00237
16.32,0.00177
16.33,0.00185
16.34,0.00197
16.35,0.00169
16.36,0.00212
16.37,0.00175
16.38,0.00160
16.39,0.00218
16.40,0.00195
16.41,0.00175
16.42,0.00230
16.43,0.00176
16.44,0.00190
16.45,0.00201
16.46,0.00167
16.47,0.00227
16.48,0.00197
16.49,0.00155
16.50,0.00208
16.51,0.00203
16.52,0.00178
16.53,0.00208
16.54,0.00167
16.55,0.00211
16.56,0.00224
16.57,0.00159
16.58,0.00205
16.59,0.00205
16.60,0.00181
16.61,0.00210
16.62,0.00180
16.63,0.00182
16.64,0.00220
16.65,0.00166
16.66,0.00200
16.67,0.00223
16.68,0.00176
16.69,0.00207
16.70,0.00200
16.71,0.00178
16.72,0.00226
16.73,0.00187
16.74,0.00173
16.75,0.00227
16.76,0.00178
16.77,0.00185
16.78,0.00200
16.79,0.00176
16.80,0.00223
16.81,0.00200
16.82,0.00165
16.83,0.00217
16.84,0.00198
16.85,0.00184
16.86,0.00225
16.87,0.00179
16.88,0.00205
16.89,0.00205
16.90,0.00160
16.91,0.00223
16.92,0.00207
16.93,0.00168
16.94,0.00212
16.95,0.00194
16.96,0.00188
16.97,0.00217
16.98,0.00166
16.99,0.00207
17.00,0.00237
17.01,0.00167
17.02,0.00200
17.03,0.00194
17.04,0.00185
17.05,0.00219
17.06,0.00183
17.07,0.00181
17.08,0.00224
17.09,0.00181
17.10,0.00194
17.11,0.00213
17.12,0.00165
17.13,0.00223
17.14,0.00217
17.15,0.00179
17.16,0.00215
17.17,0.00182
17.18,0.00186
17.19,0.00234
17.20,0.00184
17.21,0.00186
17.22,0.00211
17.23,0.00169
17.24,0.00227
17.25,0.00211
17.26,0.00172
17.27,0.00219
17.28,0.00199
17.29,0.00192
17.30,0.00219
17.31,0.00174
17.32,0.00194
17.33,0.00226
17.34,0.00181
17.35,0.00219
17.36,0.00201
17.37,0.00170
17.38,0.00226
17.39,0.00199
17.40,0.00194
17.41,0.00228
17.42,0.00187
17.43,0.00195
17.44,0.00223
17.45,0.00179
17.46,0.00223
17.47,0.00209
17.48,0.00163
17.49,0.00220
17.50,0.00210
17.51,0.00203
17.52,0.00225
17.53,0.00175
17.54,0.00198
17.55,0.00241
17.56,0.00177
17.57,0.00205
17.58,0.00208
17.59,0.00188
17.60,0.00244
17.61,0.00193
17.62,0.00177
17.63,0.00224
17.64,0.00188
17.65,0.00208
17.66,0.00223
17.67,0.00183
17.68,0.00216
17.69,0.00209
17.70,0.00174
17.71,0.00239
17.72,0.00203
17.73,0.00185
17.74,0.00218
17.75,0.00189
17.76,0.00207
17.77,0.00214
17.78,0.00170
17.79,0.00219
17.80,0.00224
17.81,0.00174
17.82,0.00219
17.83,0.00192
17.84,0.00195
17.85,0.00237
17.86,0.00181
17.87,0.00191
17.88,0.00232
17.89,0.00187
17.90,0.00207
17.91,0.00200
17.92,0.00171
17.93,0.00242
17.94,0.00206
17.95,0.00182
17.96,0.00216
17.97,0.00178
17.98,0.00200
17.99,0.00240
18.00,0.00191
18.01,0.00198
18.02,0.00192
18.03,0.00175
18.04,0.00255
18.05,0.00213
18.06,0.00169
18.07,0.00214
18.08,0.00202
18.09,0.00208
18.10,0.00216
18.11,0.00166
18.12,0.00226
18.13,0.00234
18.14,0.00170
18.15,0.00221
18.16,0.00206
18.17,0.00195
18.18,0.00224
18.19,0.00189
18.20,0.00210
18.21,0.00224
18.22,0.00159
18.23,0.00198
18.24,0.00235
18.25,0.00198
18.26,0.00223
18.27,0.00191
18.28,0.00197
18.29,0.00245
18.30,0.00187
18.31,0.00193
18.32,0.00237
18.33,0.00192
18.34,0.00200
18.35,0.00198
18.36,0.00183
18.37,0.00243
18.38,0.00203
18.39,0.00179
18.40,0.00243
18.41,0.00213
18.42,0.00198
18.43,0.00210
18.44,0.00175
18.45,0.00231
18.46,0.00223
18.47,0.00168
18.48,0.00220
18.49,0.00212
18.50,0.00191
18.51,0.00235
18.52,0.00196
18.53,0.00222
18.54,0.00235
18.55,0.00180
18.56,0.00209
18.57,0.00228
18.58,0.00192
18.59,0.00230
18.60,0.00200
18.61,0.00180
18.62,0.00234
18.63,0.00195
18.64,0.00208
18.65,0.00236
18.66,0.00192
18.67,0.00214
18.68,0.00228
18.69,0.00189
18.70,0.00220
18.71,0.00200
18.72,0.00185
18.73,0.00253
18.74,0.00203
18.75,0.00197
18.76,0.00218
18.77,0.00194
18.78,0.00237
18.79,0.00233
18.80,0.00185
18.81,0.00219
18.82,0.00206
18.83,0.00196
18.84,0.00241
18.85,0.00198
18.86,0.00201
18.87,0.00228
18.88,0.00187
18.89,0.00229
18.90,0.00228
18.91,0.00183
18.92,0.00231
18.93,0.00228
18.94,0.00194
18.95,0.00237
18.96,0.00194
18.97,0.00203
18.98,0.00246
18.99,0.00197
19.00,0.00228
19.01,0.00224
19.02,0.00189
19.03,0.00235
19.04,0.00230
19.05,0.00185
19.06,0.00239
19.07,0.00203
19.08,0.00223
19.09,0.00235
19.10,0.00178
19.11,0.00214
19.12,0.00242
19.13,0.00206
19.14,0.00218
19.15,0.00199
19.16,0.00195
19.17,0.00265
19.18,0.00210
19.19,0.00195
19.20,0.00230
19.21,0.00199
19.22,0.00223
19.23,0.00231
19.24,0.00187
19.25,0.00229
19.26,0.00216
19.27,0.00187
19.28,0.00248
19.29,0.00198
19.30,0.00196
19.31,0.00235
19.32,0.00202
19.33,0.00238
19.34,0.00222
19.35,0.00176
19.36,0.00234
19.37,0.00227
19.38,0.00201
19.39,0.00235
19.40,0.00191
19.41,0.00204
19.42,0.00241
19.43,0.00189
19.44,0.00226
19.45,0.00234
19.46,0.00186
19.47,0.00225
19.48,0.00231
19.49,0.00201
19.50,0.00241
19.51,0.00187
19.52,0.00200
19.53,0.00252
19.54,0.00194
19.55,0.00203
19.56,0.00213
19.57,0.00212
19.58,0.00246
19.59,0.00209
19.60,0.00180
19.61,0.00245
19.62,0.00212
19.63,0.00205
19.64,0.00235
19.65,0.00189
19.66,0.00218
19.67,0.00224
19.68,0.00185
19.69,0.00247
19.70,0.00231
19.71,0.00183
19.72,0.00237
19.73,0.00221
19.74,0.00215
19.75,0.00231
19.76,0.00186
19.77,0.00232
19.78,0.00238
19.79,0.00177
19.80,0.00223
19.81,0.00228
19.82,0.00209
19.83,0.00235
19.84,0.00196
19.85,0.00227
19.86,0.00256
19.87,0.00186
19.88,0.00216
19.89,0.00243
19.90,0.00209
19.91,0.00229
19.92,0.00202
19.93,0.00200
19.94,0.00255
19.95,0.00203
19.96,0.00192
19.97,0.00264
19.98,0.00207
19.99,0.00225
20.00,0.00222
20.01,0.00194
20.02,0.00252
20.03,0.00227
20.04,0.00196
20.05,0.00235
20.06,0.00204
20.07,0.00199
20.08,0.00250
20.09,0.00199
20.10,0.00239
20.11,0.00229
20.12,0.00195
20.13,0.00250
20.14,0.00224
20.15,0.00193
20.16,0.00239
20.17,0.00218
20.18,0.00221
20.19,0.00234
20.20,0.00177
20.21,0.00234
20.22,0.00253
20.23,0.00206
20.24,0.00241
20.25,0.00222
20.26,0.00203
20.27,0.00244
20.28,0.00218
20.29,0.00220
20.30,0.00245
20.31,0.00187
20.32,0.00228
20.33,0.00242
20.34,0.00187
20.35,0.00240
20.36,0.00234
20.37,0.00219
20.38,0.00254
20.39,0.00203
20.40,0.00209
20.41,0.00258
20.42,0.00209
20.43,0.00229
20.44,0.00228
20.45,0.00189
20.46,0.00246
20.47,0.00228
20.48,0.00206
20.49,0.00248
20.50,0.00219
20.51,0.00220
20.52,0.00255
20.53,0.00195
20.54,0.00220
20.55,0.00244
20.56,0.00201
20.57,0.00250
20.58,0.00214
20.59,0.00185
20.60,0.00239
20.61,0.00237
20.62,0.00230
20.63,0.00251
20.64,0.00191
20.65,0.00236
20.66,0.00260
20.67,0.00202
20.68,0.00232
20.69,0.00224
20.70,0.00212
20.71,0.00254
20.72,0.00208
20.73,0.00206
20.74,0.00251
20.75,0.00209
20.76,0.00234
20.77,0.00261
20.78,0.00208
20.79,0.00233
20.80,0.00221
20.81,0.00213
20.82,0.00263
20.83,0.00212
20.84,0.00188
20.85,0.00248
20.86,0.00221
20.87,0.00228
20.88,0.00238
20.89,0.00201
20.90,0.00265
20.91,0.00238
20.92,0.00190
20.93,0.00245
20.94,0.00232
20.95,0.00216
20.96,0.00238
20.97,0.00198
20.98,0.00233
20.99,0.00262
21.00,0.00193
21.01,0.00243
21.02,0.00239
21.03,0.00212
21.04,0.00250
21.05,0.00214
21.06,0.00211
21.07,0.00257
21.08,0.00206
21.09,0.00228
21.10,0.00255
21.11,0.00203
21.12,0.00238
21.13,0.00240
21.14,0.00214
21.15,0.00255
21.16,0.00220
21.17,0.00215
21.18,0.00261
21.19,0.00212
21.20,0.00217
21.21,0.00244
21.22,0.00213
21.23,0.00254
21.24,0.00232
21.25,0.00203
21.26,0.00264
21.27,0.00234
21.28,0.00201
21.29,0.00243
21.30,0.00211
21.31,0.00231
21.32,0.00254
21.33,0.00196
21.34,0.00243
21.35,0.00239
21.36,0.00208
21.37,0.00266
21.38,0.00233
21.39,0.00214
21.40,0.00244
21.41,0.00212
21.42,0.00242
21.43,0.00256
21.44,0.00189
21.45,0.00233
21.46,0.00252
21.47,0.00220
21.48,0.00247
21.49,0.00209
21.50,0.00232
21.51,0.00270
21.52,0.00210
21.53,0.00202
21.54,0.00241
21.55,0.00217
21.56,0.00246
21.57,0.00223
21.58,0.00199
21.59,0.00267
21.60,0.00228
21.61,0.00217
21.62,0.00253
21.63,0.00213
21.64,0.00229
21.65,0.00254
21.66,0.00206
21.67,0.00230
21.68,0.00225
21.69,0.00197
21.70,0.00277
21.71,0.00235
21.72,0.00204
21.73,0.00240
21.74,0.00221
21.75,0.00245
21.76,0.00250
21.77,0.00193
21.78,0.00229
21.79,0.00244
21.80,0.00199
21.81,0.00242
21.82,0.00212
21.83,0.00226
21.84,0.00265
21.85,0.00218
21.86,0.00228
21.87,0.00249
21.88,0.00208
21.89,0.00241
21.90,0.00244
21.91,0.00201
21.92,0.00251
21.93,0.00211
21.94,0.00214
21.95,0.00265
21.96,0.00219
21.97,0.00225
21.98,0.00257
21.99,0.00226
22.00,0.00244
22.01,0.00233
22.02,0.00200
22.03,0.00268
22.04,0.00226
22.05,0.00201
22.06,0.00245
22.07,0.00216
22.08,0.00240
22.09,0.00248
22.10,0.00206
22.11,0.00250
22.12,0.00252
22.13,0.00200
22.14,0.00254
22.15,0.00229
22.16,0.00227
22.17,0.00261
22.18,0.00202
22.19,0.00225
22.20,0.00253
22.21,0.00209
22.22,0.00250
22.23,0.00252
22.24,0.00199
22.25,0.00247
22.26,0.00229
22.27,0.00231
22.28,0.00261
22.29,0.00205
22.30,0.00235
22.31,0.00255
22.32,0.00206
22.33,0.00230
22.34,0.00238
22.35,0.00223
22.36,0.00260
22.37,0.00212
22.38,0.00211
22.39,0.00270
22.40,0.00222
22.41,0.00227
22.42,0.00252
22.43,0.00217
22.44,0.00265
22.45,0.00242
22.46,0.00198
22.47,0.00247
22.48,0.00230
22.49,0.00217
22.50,0.00259
22.51,0.00212
22.52,0.00225
22.53,0.00250
22.54,0.00222
22.55,0.00260
22.56,0.00239
22.57,0.00199
22.58,0.00254
22.59,0.00235
22.60,0.00221
22.61,0.00243
22.62,0.00208
22.63,0.00243
22.64,0.00266
22.65,0.00208
22.66,0.00235
22.67,0.00240
22.68,0.00218
22.69,0.00274
22.70,0.00224
22.71,0.00207
22.72,0.00254
22.73,0.00220
22.74,0.00238
22.75,0.00256
22.76,0.00209
22.77,0.00239
22.78,0.00237
22.79,0.00223
22.80,0.00264
22.81,0.00226
22.82,0.00214
22.83,0.00266
22.84,0.00227
22.85,0.00236
22.86,0.00243
22.87,0.00207
22.88,0.00264
22.89,0.00240
22.90,0.00206
22.91,0.00258
22.92,0.00230
22.93,0.00225
22.94,0.00263
22.95,0.00220
22.96,0.00237
22.97,0.00256
22.98,0.00198
22.99,0.00249
23.00,0.00239
23.01,0.00215
23.02,0.00264
23.03,0.00229
23.04,0.00208
23.05,0.00252
23.06,0.00227
23.07,0.00244
23.08,0.00255
23.09,0.00195
23.10,0.00246
23.11,0.00246
23.12,0.00217
23.13,0.00251
23.14,0.00231
23.15,0.00238
23.16,0.00270
23.17,0.00194
23.18,0.00214
23.19,0.00263
23.20,0.00219
23.21,0.00249
23.22,0.00227
23.23,0.00214
23.24,0.00259
23.25,0.00235
23.26,0.00219
23.27,0.00269
23.28,0.00226
23.29,0.00240
23.30,0.00250
23.31,0.00207
23.32,0.00252
23.33,0.00234
23.34,0.00212
23.35,0.00271
23.36,0.00233
23.37,0.00206
23.38,0.00252
23.39,0.00235
23.40,0.00261
23.41,0.00257
23.42,0.00188
23.43,0.00252
23.44,0.00252
23.45,0.00217
23.46,0.00246
23.47,0.00221
23.48,0.00229
23.49,0.00270
23.50,0.00212
23.51,0.00228
23.52,0.00264
23.53,0.00215
23.54,0.00262
23.55,0.00247
23.56,0.00221
23.57,0.00257
23.58,0.00218
23.59,0.00217
23.60,0.00267
23.61,0.00229
23.62,0.00234
23.63,0.00257
23.64,0.00204
23.65,0.00251
23.66,0.00246
23.67,0.00228
23.68,0.00276
23.69,0.00229
23.70,0.00204
23.71,0.00261
23.72,0.00226
23.73,0.00243
23.74,0.00253
23.75,0.00203
23.76,0.00260
23.77,0.00258
23.78,0.00210
23.79,0.00245
23.80,0.00231
23.81,0.00238
23.82,0.00271
23.83,0.00213
23.84,0.00223
23.85,0.00251
23.86,0.00211
23.87,0.00257
23.88,0.00250
23.89,0.00213
23.90,0.00256
23.91,0.00228
23.92,0.00230
23.93,0.00269
23.94,0.00216
23.95,0.00230
23.96,0.00265
23.97,0.00214
23.98,0.00247
23.99,0.00238
24.00,0.00226
24.01,0.00271
24.02,0.00224
24.03,0.00215
24.04,0.00269
24.05,0.00222
24.06,0.00232
24.07,0.00246
24.08,0.00221
24.09,0.00267
24.10,0.00243
24.11,0.00209
24.12,0.00271
24.13,0.00246
24.14,0.00218
24.15,0.00251
24.16,0.00220
24.17,0.00244
24.18,0.00257
24.19,0.00201
24.20,0.00246
24.21,0.00253
24.22,0.00223
24.23,0.00269
24.24,0.00236
24.25,0.00231
24.26,0.00263
24.27,0.00225
24.28,0.00237
24.29,0.00259
24.30,0.00201
24.31,0.00248
24.32,0.00251
24.33,0.00223
24.34,0.00259
24.35,0.00226
24.36,0.00237
24.37,0.00280
24.38,0.00200
24.39,-0.00474
24.40,-0.07148
24.41,-0.21706
24.42,-0.38952
24.43,-0.56381
24.44,-0.73049
24.45,-0.90260
24.46,-1.06369
24.47,-1.22980
24.48,-1.39244
24.49,-1.56384
24.50,-1.73599
24.51,-1.89992
24.52,-2.07116
24.53,-2.22977
24.54,-2.40358
24.55,-2.57518
24.56,-2.73857
24.57,-2.90889
24.58,-3.06947
24.59,-3.24134
24.60,-3.40817
24.61,-3.56554
24.62,-3.73304
24.63,-3.89879
24.64,-4.07254
24.65,-4.24008
24.66,-4.40193
24.67,-4.56587
24.68,-4.73197
24.69,-4.90704
24.70,-5.07437
24.71,-5.24220
24.72,-5.40368
24.73,-5.56864
24.74,-5.73923
24.75,-5.89911
24.76,-6.07405
24.77,-6.23553
24.78,-6.40483
24.79,-6.57565
24.80,-6.73529
24.81,-6.90714
24.82,-7.06746
24.83,-7.23639
24.84,-7.40419
24.85,-7.56768
24.86,-7.73790
24.87,-7.89840
24.88,-8.06924
24.89,-8.23068
24.90,-8.39936
24.91,-8.56991
24.92,-8.73593
24.93,-8.90875
24.94,-9.07179
24.95,-9.23853
24.96,-9.39983
24.97,-9.56531
24.98,-9.73713
24.99,-9.90102
25.00,-10.06882
25.01,-10.23111
25.02,-10.40116
25.03,-10.57572
25.04,-10.74069
25.05,-10.90967
25.06,-11.06835
25.07,-11.23632
25.08,-11.40352
25.09,-11.56742
25.10,-11.73690
25.11,-11.89885
25.12,-12.07143
25.13,-12.23703
25.14,-12.40165
25.15,-12.56933
25.16,-12.73256
25.17,-12.90761
25.18,-13.07291
25.19,-13.23953
25.20,-13.40248
25.21,-13.56669
25.22,-13.74095
25.23,-13.90361
25.24,-14.07361
25.25,-14.23308
25.26,-14.40280
25.27,-14.57322
25.28,-14.73536
25.29,-14.90658
25.30,-15.06840
25.31,-15.23844
25.32,-15.40406
25.33,-15.56386
25.34,-15.73402
25.35,-15.89674
25.36,-16.06920
25.37,-16.23439
25.38,-16.39880
25.39,-16.56715
25.40,-16.73284
25.41,-16.90439
25.42,-17.06809
25.43,-17.23298
25.44,-17.39539
25.45,-17.55870
25.46,-17.73083
25.47,-17.89268
25.48,-18.06401
25.49,-18.22453
25.50,-18.39485
25.51,-18.56714
25.52,-18.73016
25.53,-18.90259
25.54,-19.06289
25.55,-19.23113
25.56,-19.39949
25.57,-19.55894
25.58,-19.72913
25.59,-19.88786
25.60,-20.05928
25.61,-20.22365
25.62,-20.39004
25.63,-20.55763
25.64,-20.72332
25.65,-20.89746
25.66,-21.05957
25.67,-21.22730
25.68,-21.38961
25.69,-21.55655
25.70,-21.72993
25.71,-21.88963
25.72,-22.05778
25.73,-22.21957
25.74,-22.38831
25.75,-22.56020
25.76,-22.72197
25.77,-22.89205
25.78,-23.05428
25.79,-23.22465
25.80,-23.39067
25.81,-23.55084
25.82,-23.72071
25.83,-23.88330
25.84,-24.05641
25.85,-24.21807
25.86,-24.38184
25.87,-24.54980
25.88,-24.71491
25.89,-24.88836
25.90,-25.05125
25.91,-25.21572
25.92,-25.37858
25.93,-25.54263
25.94,-25.71498
25.95,-25.87608
25.96,-26.04436
25.97,-26.20577
25.98,-26.37525
25.99,-26.54602
26.00,-26.70787
26.01,-26.87884
26.02,-27.03879
26.03,-27.21089
26.04,-27.37709
26.05,-27.53701
26.06,-27.70718
26.07,-27.86560
26.08,-28.03760
26.09,-28.20065
26.10,-28.36496
26.11,-28.53370
26.12,-28.69751
26.13,-28.87204
26.14,-29.03496
26.15,-29.20091
26.16,-29.36528
26.17,-29.53031
26.18,-29.70178
26.19,-29.86265
26.20,-30.02946
26.21,-30.18829
26.22,-30.35758
26.23,-30.52834
26.24,-30.69161
26.25,-30.86304
26.26,-31.02229
26.27,-31.19437
26.28,-31.36283
26.29,-31.52400
26.30,-31.69340
26.31,-31.85322
26.32,-32.02609
26.33,-32.19188
26.34,-32.35662
26.35,-32.52580
26.36,-32.68960
26.37,-32.86203
26.38,-33.02378
26.39,-33.18818
26.40,-33.35123
26.41,-33.51636
26.42,-33.68889
26.43,-33.85007
26.44,-34.01955
26.45,-34.17995
26.46,-34.34989
26.47,-34.52332
26.48,-34.68716
26.49,-34.85992
26.50,-35.02063
26.51,-35.19183
26.52,-35.35835
26.53,-35.52189
26.54,-35.69129
26.55,-35.85316
26.56,-36.02445
26.57,-36.18750
26.58,-36.35265
26.59,-36.51902
26.60,-36.68400
26.61,-36.85839
26.62,-37.02162
26.63,-37.18868
26.64,-37.35325
26.65,-37.51659
26.66,-37.68859
26.67,-37.84851
26.68,-38.01905
26.69,-38.17994
26.70,-38.34708
26.71,-38.51723
26.72,-38.67980
26.73,-38.85104
26.74,-39.01233
26.75,-39.18213
26.76,-39.35072
26.77,-39.51251
26.78,-39.68065
26.79,-39.84019
26.80,-40.01330
26.81,-40.17708
26.82,-40.34093
26.83,-40.50874
26.84,-40.67235
26.85,-40.84574
26.86,-41.00603
26.87,-41.17146
26.88,-41.33617
26.89,-41.50090
26.90,-41.67519
26.91,-41.83677
26.92,-42.00421
26.93,-42.16745
26.94,-42.33608
26.95,-42.50625
26.96,-42.66751
26.97,-42.83654
26.98,-42.99711
26.99,-43.16751
27.00,-43.33477
27.01,-43.49526
27.02,-43.66557
27.03,-43.82662
27.04,-43.99909
27.05,-44.16241
27.06,-44.32538
27.07,-44.49411
27.08,-44.65686
27.09,-44.83173
27.10,-44.99471
27.11,-45.16038
27.12,-45.32322
27.13,-45.48574
27.14,-45.65592
27.15,-45.81674
27.16,-45.98562
27.17,-46.14792
27.18,-46.31804
27.19,-46.48943
27.20,-46.65104
27.21,-46.82034
27.22,-46.97996
27.23,-47.15150
27.24,-47.32085
27.25,-47.48430
27.26,-47.65339
27.27,-47.81265
27.28,-47.98502
27.29,-48.15132
27.30,-48.31480
27.31,-48.48258
27.32,-48.64526
27.33,-48.81834
27.34,-48.98045
27.35,-49.14648
27.36,-49.30807
27.37,-49.47096
27.38,-49.64506
27.39,-49.80507
27.40,-49.97397
27.41,-50.13533
27.42,-50.30385
27.43,-50.47672
27.44,-50.63951
27.45,-50.80948
27.46,-50.97047
27.47,-51.13872
27.48,-51.30822
27.49,-51.46825
27.50,-51.63850
27.51,-51.79909
27.52,-51.97093
27.53,-52.13506
27.54,-52.29991
27.55,-52.46739
27.56,-52.63111
27.57,-52.80426
27.58,-52.96772
27.59,-53.13316
27.60,-53.29766
27.61,-53.46092
27.62,-53.63460
27.63,-53.79547
27.64,-53.96485
27.65,-54.12498
27.66,-54.29341
27.67,-54.46471
27.68,-54.62802
27.69,-54.79867
27.70,-54.95968
27.71,-55.12978
27.72,-55.29677
27.73,-55.45910
27.74,-55.62967
27.75,-55.79095
27.76,-55.96463
27.77,-56.12829
27.78,-56.29243
27.79,-56.46156
27.80,-56.62455
27.81,-56.79869
27.82,-56.95830
27.83,-57.12547
27.84,-57.28875
27.85,-57.45328
27.86,-57.62458
27.87,-57.78678
27.88,-57.95673
27.89,-58.11958
27.90,-58.28950
27.91,-58.45974
27.92,-58.62234
27.93,-58.79359
27.94,-58.95463
27.95,-59.12603
27.96,-59.29305
27.97,-59.45334
27.98,-59.62362
27.99,-59.78404
28.00,-59.95645
28.01,-60.12268
28.02,-60.28728
28.03,-60.45776
28.04,-60.62183
28.05,-60.79588
28.06,-60.95939
28.07,-61.12520
28.08,-61.29084
28.09,-61.45519
28.10,-61.62760
28.11,-61.78847
28.12,-61.95852
28.13,-62.12042
28.14,-62.29062
28.15,-62.46259
28.16,-62.62417
28.17,-62.79596
28.18,-62.95833
28.19,-63.13006
28.20,-63.29806
28.21,-63.45941
28.22,-63.62878
28.23,-63.79013
28.24,-63.96199
28.25,-64.12713
28.26,-64.29267
28.27,-64.46172
28.28,-64.62538
28.29,-64.79934
28.30,-64.96236
28.31,-65.12684
28.32,-65.29001
28.33,-65.45451
28.34,-65.62860
28.35,-65.79051
28.36,-65.96103
28.37,-66.12351
28.38,-66.29299
28.39,-66.46491
28.40,-66.62825
28.41,-66.80082
28.42,-66.96206
28.43,-67.13395
28.44,-67.30381
28.45,-67.46411
28.46,-67.63284
28.47,-67.79237
28.48,-67.96550
28.49,-68.13051
28.50,-68.29542
28.51,-68.46162
28.52,-68.62501
28.53,-68.79738
28.54,-68.95981
28.55,-69.12522
28.56,-69.28827
28.57,-69.45298
28.58,-69.62587
28.59,-69.78692
28.60,-69.95431
28.61,-70.11514
28.62,-70.28272
28.63,-70.45510
28.64,-70.61774
28.65,-70.78737
28.66,-70.94658
28.67,-71.11675
28.68,-71.28475
28.69,-71.44624
28.70,-71.61656
28.71,-71.77612
28.72,-71.94738
28.73,-72.11217
28.74,-72.27623
28.75,-72.44441
28.76,-72.60719
28.77,-72.78065
28.78,-72.94465
28.79,-73.10859
28.80,-73.27326
28.81,-73.43560
28.82,-73.60924
28.83,-73.77205
28.84,-73.94020
28.85,-74.10263
28.86,-74.27139
28.87,-74.44268
28.88,-74.60504
28.89,-74.77664
28.90,-74.93650
28.91,-75.10789
28.92,-75.27500
28.93,-75.43452
28.94,-75.60400
28.95,-75.76116
28.96,-75.93311
28.97,-76.09705
28.98,-76.26128
28.99,-76.43024
29.00,-76.59401
29.01,-76.76597
29.02,-76.92929
29.03,-77.09591
29.04,-77.26111
29.05,-77.42626
29.06,-77.59658
29.07,-77.75918
29.08,-77.92948
29.09,-78.09040
29.10,-78.25994
29.11,-78.42949
29.12,-78.59047
29.13,-78.76250
29.14,-78.92497
29.15,-79.09649
29.16,-79.26539
29.17,-79.42802
29.18,-79.59657
29.19,-79.75780
29.20,-79.92928
29.21,-80.09509
29.22,-80.25824
29.23,-80.42658
29.24,-80.59118
29.25,-80.76583
29.26,-80.92603
29.27,-81.09412
29.28,-81.25489
29.29,-81.42093
29.30,-81.59276
29.31,-81.75284
29.32,-81.92251
29.33,-82.08383
29.34,-82.25503
29.35,-82.42470
29.36,-82.58658
29.37,-82.75737
29.38,-82.91828
29.39,-83.08957
29.40,-83.25538
29.41,-83.41953
29.42,-83.58929
29.43,-83.75070
29.44,-83.92219
29.45,-84.08461
29.46,-84.25151
29.47,-84.41819
29.48,-84.58388
29.49,-84.75900
29.50,-84.92233
29.51,-85.09075
29.52,-85.25438
29.53,-85.42188
29.54,-85.59350
29.55,-85.75440
29.56,-85.92276
29.57,-86.08527
29.58,-86.25431
29.59,-86.42454
29.60,-86.58498
29.61,-86.75323
29.62,-86.91332
29.63,-87.08579
29.64,-87.25506
29.65,-87.42015
29.66,-87.58775
29.67,-87.74830
29.68,-87.92100
29.69,-88.08592
29.70,-88.25132
29.71,-88.41997
29.72,-88.58472
29.73,-88.75999
29.74,-88.92313
29.75,-89.08777
29.76,-89.25129
29.77,-89.41476
29.78,-89.58460
29.79,-89.74744
29.80,-89.91421
29.81,-90.07520
29.82,-90.24360
29.83,-90.41597
29.84,-90.57910
29.85,-90.75207
29.86,-90.91281
29.87,-91.08214
29.88,-91.25142
29.89,-91.41290
29.90,-91.58276
29.91,-91.74281
29.92,-91.91283
29.93,-92.07968
29.94,-92.24346
29.95,-92.41246
29.96,-92.57439
29.97,-92.74695
29.98,-92.91062
29.99,-93.07683
30.00,-93.24041
30.01,-93.40436
30.02,-93.57642
30.03,-93.73940
30.04,-93.90926
30.05,-94.07063
30.06,-94.23723
30.07,-94.40850
30.08,-94.57016
30.09,-94.74120
30.10,-94.90050
30.11,-95.07266
30.12,-95.24147
30.13,-95.40062
30.14,-95.56959
30.15,-95.72698
30.16,-95.89950
30.17,-96.06574
30.18,-96.23036
30.19,-96.39882
30.20,-96.56322
30.21,-96.73548
30.22,-96.89713
30.23,-97.06269
30.24,-97.22587
30.25,-97.38998
30.26,-97.56324
30.27,-97.72099
30.28,-97.88895
30.29,-98.04924
30.30,-98.21774
30.31,-98.38973
30.32,-98.55090
30.33,-98.72139
30.34,-98.88129
30.35,-99.05124
30.36,-99.21892
30.37,-99.37892
30.38,-99.54959
30.39,-99.70859
30.40,-99.88110
30.41,-100.04696
30.42,-100.21123
30.43,-100.37989
30.44,-100.54370
30.45,-100.71794
30.46,-100.87902
30.47,-101.04495
30.48,-101.21019
30.49,-101.37253
30.50,-101.54676
30.51,-101.70511
30.52,-101.87329
30.53,-102.03402
30.54,-102.20162
30.55,-102.37251
30.56,-102.53406
30.57,-102.70485
30.58,-102.86842
30.59,-103.04137
30.60,-103.20868
30.61,-103.37032
30.62,-103.54131
30.63,-103.70220
30.64,-103.87268
30.65,-104.03876
30.66,-104.20282
30.67,-104.37373
30.68,-104.53618
30.69,-104.71128
30.70,-104.87416
30.71,-105.04041
30.72,-105.20583
30.73,-105.36919
30.74,-105.54675
30.75,-105.70570
30.76,-105.87489
30.77,-106.03738
30.78,-106.20671
30.79,-106.37991
30.80,-106.54277
30.81,-106.71350
30.82,-106.87116
30.83,-107.04170
30.84,-107.20880
30.85,-107.36960
30.86,-107.54169
30.87,-107.69982
30.88,-107.87368
30.89,-108.03869
30.90,-108.20400
30.91,-108.37577
30.92,-108.53894
30.93,-108.71339
30.94,-108.87678
30.95,-109.04287
30.96,-109.20909
30.97,-109.37203
30.98,-109.54175
30.99,-109.69955
31.00,-109.86890
31.01,-110.02967
31.02,-110.19989
31.03,-110.37361
31.04,-110.53568
31.05,-110.70783
31.06,-110.86751
31.07,-111.03619
31.08,-111.20249
31.09,-111.36143
31.10,-111.53077
31.11,-111.69216
31.12,-111.86435
31.13,-112.03153
31.14,-112.19591
31.15,-112.36444
31.16,-112.52793
31.17,-112.70202
31.18,-112.86660
31.19,-113.03386
31.20,-113.19781
31.21,-113.36207
31.22,-113.53501
31.23,-113.69548
31.24,-113.86302
31.25,-114.02521
31.26,-114.19149
31.27,-114.36407
31.28,-114.52383
31.29,-114.69394
31.30,-114.85290
31.31,-115.02092
31.32,-115.18849
31.33,-115.34930
31.34,-115.51740
31.35,-115.67815
31.36,-115.85134
31.37,-116.01597
31.38,-116.18110
31.39,-116.35053
31.40,-116.51341
31.41,-116.68701
31.42,-116.84872
31.43,-117.01370
31.44,-117.17895
31.45,-117.34231
31.46,-117.51237
31.47,-117.67022
31.48,-117.83680
31.49,-117.99805
31.50,-118.16686
31.51,-118.33909
31.52,-118.50068
31.53,-118.66875
31.54,-118.82875
31.55,-118.99754
31.56,-119.16454
31.57,-119.32552
31.58,-119.49451
31.59,-119.65331
31.60,-119.82633
31.61,-119.98971
31.62,-120.15284
31.63,-120.32236
31.64,-120.48480
31.65,-120.65899
31.66,-120.82189
31.67,-120.98466
31.68,-121.14835
31.69,-121.31038
31.70,-121.48157
31.71,-121.64284
31.72,-121.81057
31.73,-121.97329
31.74,-122.14211
31.75,-122.31341
31.76,-122.47479
31.77,-122.64497
31.78,-122.80611
31.79,-122.97616
31.80,-123.14449
31.81,-123.30459
31.82,-123.47404
31.83,-123.63234
31.84,-123.80390
31.85,-123.96791
31.86,-124.13167
31.87,-124.30051
31.88,-124.46480
31.89,-124.63811
31.90,-124.80229
31.91,-124.96804
31.92,-125.13290
31.93,-125.29664
31.94,-125.46882
31.95,-125.63033
31.96,-125.79959
31.97,-125.95893
31.98,-126.12839
31.99,-126.30088
32.00,-126.46212
32.01,-126.63203
32.02,-126.79331
32.03,-126.96493
32.04,-127.13478
32.05,-127.29432
32.06,-127.46356
32.07,-127.62267
32.08,-127.79468
32.09,-127.96087
32.10,-128.12534
32.11,-128.29400
32.12,-128.45823
32.13,-128.63264
32.14,-128.79708
32.15,-128.96391
32.16,-129.12987
32.17,-129.29289
32.18,-129.46557
32.19,-129.62641
32.20,-129.79508
32.21,-129.95733
32.22,-130.12574
32.23,-130.29751
32.24,-130.46138
32.25,-130.63165
32.26,-130.79496
32.27,-130.96617
32.28,-131.13507
32.29,-131.29533
32.30,-131.46429
32.31,-131.62603
32.32,-131.79759
32.33,-131.96406
32.34,-132.12880
32.35,-132.29836
32.36,-132.46052
32.37,-132.63476
32.38,-132.79959
32.39,-132.96487
32.40,-133.13168
32.41,-133.29451
32.42,-133.46724
32.43,-133.63029
32.44,-133.79948
32.45,-133.96221
32.46,-134.13196
32.47,-134.30368
32.48,-134.46678
32.49,-134.63847
32.50,-134.79795
32.51,-134.97236
32.52,-135.14039
32.53,-135.30385
32.54,-135.47372
32.55,-135.63303
32.56,-135.80884
32.57,-135.97228
32.58,-136.13861
32.59,-136.30784
32.60,-136.47131
32.61,-136.64312
32.62,-136.80653
32.63,-136.97395
32.64,-137.13591
32.65,-137.30165
32.66,-137.47246
32.67,-137.62989
32.68,-137.79918
32.69,-137.95805
32.70,-138.12832
32.71,-138.29838
32.72,-138.46000
32.73,-138.63049
32.74,-138.78988
32.75,-138.96102
32.76,-139.12779
32.77,-139.28911
32.78,-139.45642
32.79,-139.61573
32.80,-139.78785
32.81,-139.95257
32.82,-140.11814
32.83,-140.28609
32.84,-140.45071
32.85,-140.62350
32.86,-140.78474
32.87,-140.95305
32.88,-141.11564
32.89,-141.28092
32.90,-141.45138
32.91,-141.60946
32.92,-141.77713
32.93,-141.93788
32.94,-142.10825
32.95,-142.27973
32.96,-142.44129
32.97,-142.61288
32.98,-142.77441
32.99,-142.94643
33.00,-143.11395
33.01,-143.27635
33.02,-143.44577
33.03,-143.60436
33.04,-143.77704
33.05,-143.93941
33.06,-144.10586
33.07,-144.27381
33.08,-144.43874
33.09,-144.61419
33.10,-144.77450
33.11,-144.94259
33.12,-145.10520
33.13,-145.26746
33.14,-145.43854
33.15,-145.59951
33.16,-145.77097
33.17,-145.93318
33.18,-146.10556
33.19,-146.27775
33.20,-146.43824
33.21,-146.60897
33.22,-146.76871
33.23,-146.94322
33.24,-147.11002
33.25,-147.26998
33.26,-147.43739
33.27,-147.59842
33.28,-147.77523
33.29,-147.94119
33.30,-148.10934
33.31,-148.27565
33.32,-148.43879
33.33,-148.61333
33.34,-148.77364
33.35,-148.94198
33.36,-149.10716
33.37,-149.27151
33.38,-149.44381
33.39,-149.60443
33.40,-149.77429
33.41,-149.93535
33.42,-150.10566
33.43,-150.27703
33.44,-150.44072
33.45,-150.61275
33.46,-150.77229
33.47,-150.94368
33.48,-151.10721
33.49,-151.26825
33.50,-151.43811
33.51,-151.59801
33.52,-151.77266
33.53,-151.93809
33.54,-152.10238
33.55,-152.27206
33.56,-152.43565
33.57,-152.61027
33.58,-152.77344
33.59,-152.93960
33.60,-153.10265
33.61,-153.26993
33.62,-153.44294
33.63,-153.60580
33.64,-153.77567
33.65,-153.93556
33.66,-154.10793
33.67,-154.27868
33.68,-154.44115
33.69,-154.61331
33.70,-154.77127
33.71,-154.94596
33.72,-155.11262
33.73,-155.27200
33.74,-155.43968
33.75,-155.59958
33.76,-155.77248
33.77,-155.93961
33.78,-156.10597
33.79,-156.27392
33.80,-156.43866
33.81,-156.60990
33.82,-156.77194
33.83,-156.93645
33.84,-157.09860
33.85,-157.26500
33.86,-157.43638
33.87,-157.59555
33.88,-157.76678
33.89,-157.92627
33.90,-158.09568
33.91,-158.26631
33.92,-158.42690
33.93,-158.59703
33.94,-158.75564
33.95,-158.92722
33.96,-159.09018
33.97,-159.25133
33.98,-159.41873
33.99,-159.57912
34.00,-159.75090
34.01,-159.91377
34.02,-160.07789
34.03,-160.24566
34.04,-160.40874
34.05,-160.58162
34.06,-160.74202
34.07,-160.90755
34.08,-161.06955
34.09,-161.23196
34.10,-161.40502
34.11,-161.56338
34.12,-161.73296
34.13,-161.89335
34.14,-162.06275
34.15,-162.23190
34.16,-162.39291
34.17,-162.56142
34.18,-162.72117
34.19,-162.89170
34.20,-163.05769
34.21,-163.21890
34.22,-163.38897
34.23,-163.54732
34.24,-163.72123
34.25,-163.88140
34.26,-164.04539
34.27,-164.21315
34.28,-164.37611
34.29,-164.54961
34.30,-164.71154
34.31,-164.87791
34.32,-165.04201
34.33,-165.20488
34.34,-165.37523
34.35,-165.53702
34.36,-165.70639
34.37,-165.86608
34.38,-166.03580
34.39,-166.20708
34.40,-166.36931
34.41,-166.54074
34.42,-166.69750
34.43,-166.86921
34.44,-167.03439
34.45,-167.19510
34.46,-167.36327
34.47,-167.52158
34.48,-167.69591
34.49,-167.86009
34.50,-168.02388
34.51,-168.19078
34.52,-168.35222
34.53,-168.52694
34.54,-168.68945
34.55,-168.85558
34.56,-169.01902
34.57,-169.18610
34.58,-169.35690
34.59,-169.51972
34.60,-169.68889
34.61,-169.84637
34.62,-170.01556
34.63,-170.18581
34.64,-170.34830
34.65,-170.51944
34.66,-170.67650
34.67,-170.84535
34.68,-171.00963
34.69,-171.17102
34.70,-171.34060
34.71,-171.50056
34.72,-171.67296
34.73,-171.83870
34.74,-172.00610
34.75,-172.17554
34.76,-172.33883
34.77,-172.51108
34.78,-172.67364
34.79,-172.83999
34.80,-173.00260
34.81,-173.16684
34.82,-173.33578
34.83,-173.49547
34.84,-173.66386
34.85,-173.82590
34.86,-173.99483
34.87,-174.16814
34.88,-174.32988
34.89,-174.50076
34.90,-174.66015
34.91,-174.83155
34.92,-174.99992
34.93,-175.16321
34.94,-175.33239
34.95,-175.49228
34.96,-175.66269
34.97,-175.82581
34.98,-175.99110
34.99,-176.15907
35.00,-176.32117
35.01,-176.49280
35.02,-176.65502
35.03,-176.82405
35.04,-176.98863
35.05,-177.15205
35.06,-177.32689
35.07,-177.48582
35.08,-177.65369
35.09,-177.81411
35.10,-177.98063
35.11,-178.15169
35.12,-178.31151
35.13,-178.48239
35.14,-178.64281
35.15,-178.81490
35.16,-178.98092
35.17,-179.14341
35.18,-179.31202
35.19,-179.46639
35.20,-179.56996
35.21,-179.58304
35.22,-179.58009
35.23,-179.57548
35.24,-179.57422
35.25,-179.57762
35.26,-179.58041
35.27,-179.58041
35.28,-179.57925
35.29,-179.57906
35.30,-179.57849
35.31,-179.57767
35.32,-179.57815
35.33,-179.57868
35.34,-179.58161
35.35,-179.57985
35.36,-179.57938
35.37,-179.57884
35.38,-179.57854
35.39,-179.57859
35.40,-179.57844
35.41,-179.57983
35.42,-179.58222
35.43,-179.58131
35.44,-179.57705
35.45,-179.57610
35.46,-179.57760
35.47,-179.58179
35.48,-179.58334
35.49,-179.57944
35.50,-179.57702
35.51,-179.57726
35.52,-179.57917
35.53,-179.58116
35.54,-179.58092
35.55,-179.57955
35.56,-179.57986
35.57,-179.57877
35.58,-179.57815
35.59,-179.57961
35.60,-179.57967
35.61,-179.58103
35.62,-179.58032
35.63,-179.57871
35.64,-179.57924
35.65,-179.57916
35.66,-179.57862
35.67,-179.57996
35.68,-179.58039
35.69,-179.58091
35.70,-179.58041
35.71,-179.57750
35.72,-179.57770
35.73,-179.58014
35.74,-179.58134
35.75,-179.58189
35.76,-179.57926
35.77,-179.57766
35.78,-179.57890
35.79,-179.57980
35.80,-179.58042
35.81,-179.58091
35.82,-179.57965
35.83,-179.57944
35.84,-179.57914
35.85,-179.57863
35.86,-179.58024
35.87,-179.58071
35.88,-179.58029
35.89,-179.58026
35.90,-179.57934
35.91,-179.57911
35.92,-179.57978
35.93,-179.57936
35.94,-179.58019
35.95,-179.58092
35.96,-179.57989
35.97,-179.57959
35.98,-179.57867
35.99,-179.57873
36.00,-179.58081
36.01,-179.58118
36.02,-179.58062
36.03,-179.57975
36.04,-179.57819
36.05,-179.57925
36.06,-179.58060
36.07,-179.58055
36.08,-179.58080
36.09,-179.57983
36.10,-179.57898
36.11,-179.57960
36.12,-179.57948
36.13,-179.58029
36.14,-179.58110
36.15,-179.57983
36.16,-179.57971
36.17,-179.57980
36.18,-179.57960
36.19,-179.58002
36.20,-179.57992
36.21,-179.58002
36.22,-179.58120
36.23,-179.58011
36.24,-179.57911
36.25,-179.57941
36.26,-179.57953
36.27,-179.58101
36.28,-179.58097
36.29,-179.57979
36.30,-179.57975
36.31,-179.57933
36.32,-179.57936
36.33,-179.58077
36.34,-179.58076
36.35,-179.58038
36.36,-179.58015
36.37,-179.57905
36.38,-179.57984
36.39,-179.58041
36.40,-179.58030
36.41,-179.58074
36.42,-179.58019
36.43,-179.57939
36.44,-179.58006
36.45,-179.57983
36.46,-179.57992
36.47,-179.58073
36.48,-179.57993
36.49,-179.58062
36.50,-179.58022
36.51,-179.57936
36.52,-179.57998
36.53,-179.58027
36.54,-179.58054
36.55,-179.58110
36.56,-179.57994
36.57,-179.57939
36.58,-179.57993
36.59,-179.57977
36.60,-179.58085
36.61,-179.58087
36.62,-179.57998
36.63,-179.58024
36.64,-179.57973
36.65,-179.57975
36.66,-179.58076
36.67,-179.58056
36.68,-179.58038
36.69,-179.58036
36.70,-179.57961
36.71,-179.58022
36.72,-179.58044
36.73,-179.57990
36.74,-179.58064
36.75,-179.58047
36.76,-179.58014
36.77,-179.58033
36.78,-179.57973
36.79,-179.57999
36.80,-179.58085
36.81,-179.58038
36.82,-179.58060
36.83,-179.58052
36.84,-179.57961
36.85,-179.58019
36.86,-179.58038
36.87,-179.58051
36.88,-179.58101
36.89,-179.57999
36.90,-179.57985
36.91,-179.58030
36.92,-179.58005
36.93,-179.58064
36.94,-179.58089
36.95,-179.58021
36.96,-179.58061
36.97,-179.58004
36.98,-179.57996
36.99,-179.58078
37.00,-179.58038
37.01,-179.58041
37.02,-179.58059
37.03,-179.58006
37.04,-179.58031
37.05,-179.58043
37.06,-179.58001
37.07,-179.58094
37.08,-179.58071
37.09,-179.58030
37.10,-179.58067
37.11,-179.58000
37.12,-179.58029
37.13,-179.58064
37.14,-179.58032
37.15,-179.58090
37.16,-179.58052
37.17,-179.57966
37.18,-179.58048
37.19,-179.58062
37.20,-179.58053
37.21,-179.58101
37.22,-179.58030
37.23,-179.58031
37.24,-179.58056
37.25,-179.57996
37.26,-179.58075
37.27,-179.58096
37.28,-179.58011
37.29,-179.58051
37.30,-179.58039
37.31,-179.58034
37.32,-179.58079
37.33,-179.58021
37.34,-179.58070
37.35,-179.58101
37.36,-179.58026
37.37,-179.58044
37.38,-179.58051
37.39,-179.58030
37.40,-179.58088
37.41,-179.58067
37.42,-179.58048
37.43,-179.58084
37.44,-179.58005
37.45,-179.58045
37.46,-179.58107
37.47,-179.58063
37.48,-179.58076
37.49,-179.58051
37.50,-179.58020
37.51,-179.58089
37.52,-179.58060
37.53,-179.58028
37.54,-179.58096
37.55,-179.58044
37.56,-179.58058
37.57,-179.58078
37.58,-179.58028
37.59,-179.58084
37.60,-179.58085
37.61,-179.58045
37.62,-179.58092
37.63,-179.58054
37.64,-179.58039
37.65,-179.58089
37.66,-179.58039
37.67,-179.58092
37.68,-179.58107
37.69,-179.58024
37.70,-179.58069
37.71,-179.58070
37.72,-179.58036
37.73,-179.58103
37.74,-179.58055
37.75,-179.58067
37.76,-179.58111
37.77,-179.58031
37.78,-179.58056
37.79,-179.58099
37.80,-179.58068
37.81,-179.58086
37.82,-179.58079
37.83,-179.58031
37.84,-179.58098
37.85,-179.58062
37.86,-179.58060
37.87,-179.58108
37.88,-179.58047
37.89,-179.58086
37.90,-179.58090
37.91,-179.58067
37.92,-179.58093
37.93,-179.58081
37.94,-179.58037
37.95,-179.58136
37.96,-179.58073
37.97,-179.58042
37.98,-179.58086
37.99,-179.58051
38.00,-179.58108
38.01,-179.58109
38.02,-179.58045
38.03,-179.58101
38.04,-179.58095
38.05,-179.58062
38.06,-179.58111
38.07,-179.58080
38.08,-179.58063
38.09,-179.58109
38.10,-179.58040
38.11,-179.58089
38.12,-179.58105
38.13,-179.58058
38.14,-179.58107
38.15,-179.58103
38.16,-179.58073
38.17,-179.58099
38.18,-179.58075
38.19,-179.58084
38.20,-179.58142
38.21,-179.58024
38.22,-179.57490
38.23,-179.50682
38.24,-179.34237
38.25,-179.17853
38.26,-179.00047
38.27,-178.83963
38.28,-178.66961
38.29,-178.50345
38.30,-178.33920
38.31,-178.16951
38.32,-178.01062
38.33,-177.83852
38.34,-177.67506
38.35,-177.51203
38.36,-177.34812
38.37,-177.18846
38.38,-177.01133
38.39,-176.84841
38.40,-176.67825
38.41,-176.51172
38.42,-176.34556
38.43,-176.17362
38.44,-176.01553
38.45,-175.84984
38.46,-175.68816
38.47,-175.51789
38.48,-175.34577
38.49,-175.18720
38.50,-175.02070
38.51,-174.85948
38.52,-174.68378
38.53,-174.51250
38.54,-174.35040
38.55,-174.18377
38.56,-174.02256
38.57,-173.84863
38.58,-173.68455
38.59,-173.51918
38.60,-173.35296
38.61,-173.19251
38.62,-173.01850
38.63,-172.86069
38.64,-172.69547
38.65,-172.52824
38.66,-172.36114
38.67,-172.18803
38.68,-172.02827
38.69,-171.85945
38.70,-171.69529
38.71,-171.52945
38.72,-171.35862
38.73,-171.19895
38.74,-171.02569
38.75,-170.86523
38.76,-170.69800
38.77,-170.53509
38.78,-170.37214
38.79,-170.20033
38.80,-170.03888
38.81,-169.86641
38.82,-169.70893
38.83,-169.54728
38.84,-169.37790
38.85,-169.21587
38.86,-169.03843
38.87,-168.87803
38.88,-168.71122
38.89,-168.54513
38.90,-168.37963
38.91,-168.20771
38.92,-168.04754
38.93,-167.87985
38.94,-167.71794
38.95,-167.55037
38.96,-167.38166
38.97,-167.22343
38.98,-167.05438
38.99,-166.89405
39.00,-166.72013
39.01,-166.55340
39.02,-166.39215
39.03,-166.22308
39.04,-166.06363
39.05,-165.88992
39.06,-165.72579
39.07,-165.56324
39.08,-165.39506
39.09,-165.23536
39.10,-165.06299
39.11,-164.90189
39.12,-164.73546
39.13,-164.56955
39.14,-164.40238
39.15,-164.23139
39.16,-164.07122
39.17,-163.90513
39.18,-163.74500
39.19,-163.57691
39.20,-163.40846
39.21,-163.25150
39.22,-163.08188
39.23,-162.92338
39.24,-162.75094
39.25,-162.58491
39.26,-162.42212
39.27,-162.25417
39.28,-162.09301
39.29,-161.92271
39.30,-161.75781
39.31,-161.59500
39.32,-161.42920
39.33,-161.26921
39.34,-161.09621
39.35,-160.93732
39.36,-160.77094
39.37,-160.60789
39.38,-160.44040
39.39,-160.26930
39.40,-160.10833
39.41,-159.94124
39.42,-159.78024
39.43,-159.61272
39.44,-159.44391
39.45,-159.28579
39.46,-159.11881
39.47,-158.95887
39.48,-158.78881
39.49,-158.62150
39.50,-158.45818
39.51,-158.29250
39.52,-158.13104
39.53,-157.95897
39.54,-157.79482
39.55,-157.63002
39.56,-157.46457
39.57,-157.30335
39.58,-157.12891
39.59,-156.96811
39.60,-156.80235
39.61,-156.63678
39.62,-156.47098
39.63,-156.29738
39.64,-156.13791
39.65,-155.97017
39.66,-155.80432
39.67,-155.63555
39.68,-155.46817
39.69,-155.30948
39.70,-155.14237
39.71,-154.97969
39.72,-154.80512
39.73,-154.63926
39.74,-154.47484
39.75,-154.30668
39.76,-154.14506
39.77,-153.97013
39.78,-153.80745
39.79,-153.64433
39.80,-153.47669
39.81,-153.31096
39.82,-153.13379
39.83,-152.97047
39.84,-152.80567
39.85,-152.63761
39.86,-152.47170
39.87,-152.29857
39.88,-152.13642
39.89,-151.96835
39.90,-151.80596
39.91,-151.63543
39.92,-151.46872
39.93,-151.30951
39.94,-151.14126
39.95,-150.97898
39.96,-150.80841
39.97,-150.64037
39.98,-150.47580
39.99,-150.30421
40.00,-150.14450
40.01,-149.97048
40.02,-149.80711
40.03,-149.64438
40.04,-149.47740
40.05,-149.31551
40.06,-149.13895
40.07,-148.97635
40.08,-148.80904
40.09,-148.64420
40.10,-148.47674
40.11,-148.30611
40.12,-148.14530
40.13,-147.97685
40.14,-147.81479
40.15,-147.64350
40.16,-147.47330
40.17,-147.31496
40.18,-147.14390
40.19,-146.98126
40.20,-146.80628
40.21,-146.63614
40.22,-146.47401
40.23,-146.30506
40.24,-146.14380
40.25,-145.96989
40.26,-145.80462
40.27,-145.63983
40.28,-145.47423
40.29,-145.31359
40.30,-145.13903
40.31,-144.97811
40.32,-144.80971
40.33,-144.64491
40.34,-144.47663
40.35,-144.30268
40.36,-144.14229
40.37,-143.97326
40.38,-143.81292
40.39,-143.64591
40.40,-143.47646
40.41,-143.31881
40.42,-143.14894
40.43,-142.98485
40.44,-142.81222
40.45,-142.64338
40.46,-142.47798
40.47,-142.31064
40.48,-142.14770
40.49,-141.97394
40.50,-141.81058
40.51,-141.64759
40.52,-141.48445
40.53,-141.32334
40.54,-141.14918
40.55,-140.98575
40.56,-140.81835
40.57,-140.65375
40.58,-140.48766
40.59,-140.31412
40.60,-140.15231
40.61,-139.98595
40.62,-139.82326
40.63,-139.65523
40.64,-139.48650
40.65,-139.32678
40.66,-139.15871
40.67,-138.99631
40.68,-138.82312
40.69,-138.65711
40.70,-138.49281
40.71,-138.32423
40.72,-138.16302
40.73,-137.98817
40.74,-137.82621
40.75,-137.66376
40.76,-137.49876
40.77,-137.33891
40.78,-137.16485
40.79,-137.00466
40.80,-136.83752
40.81,-136.67106
40.82,-136.50461
40.83,-136.33385
40.84,-136.17109
40.85,-136.00345
40.86,-135.83917
40.87,-135.67002
40.88,-135.50009
40.89,-135.33924
40.90,-135.16749
40.91,-135.00663
40.92,-134.83143
40.93,-134.66453
40.94,-134.50069
40.95,-134.32843
40.96,-134.16603
40.97,-133.99296
40.98,-133.82773
40.99,-133.66541
41.00,-133.49763
41.01,-133.33431
41.02,-133.15792
41.03,-132.99450
41.04,-132.82657
41.05,-132.65970
41.06,-132.49132
41.07,-132.31874
41.08,-132.15889
41.09,-131.98950
41.10,-131.82794
41.11,-131.65909
41.12,-131.49102
41.13,-131.33200
41.14,-131.16053
41.15,-130.99824
41.16,-130.82588
41.17,-130.65667
41.18,-130.49364
41.19,-130.32264
41.20,-130.15981
41.21,-129.98726
41.22,-129.82295
41.23,-129.65926
41.24,-129.49287
41.25,-129.33024
41.26,-129.15443
41.27,-128.99238
41.28,-128.82264
41.29,-128.65746
41.30,-128.48832
41.31,-128.31595
41.32,-128.15483
41.33,-127.98498
41.34,-127.82313
41.35,-127.65378
41.36,-127.48575
41.37,-127.32748
41.38,-127.15930
41.39,-126.99710
41.40,-126.82341
41.41,-126.65544
41.42,-126.49154
41.43,-126.32327
41.44,-126.16141
41.45,-125.98811
41.46,-125.82668
41.47,-125.66220
41.48,-125.49642
41.49,-125.33483
41.50,-125.15934
41.51,-124.99794
41.52,-124.83141
41.53,-124.66411
41.54,-124.49766
41.55,-124.32241
41.56,-124.16150
41.57,-123.99482
41.58,-123.83420
41.59,-123.66773
41.60,-123.49941
41.61,-123.34007
41.62,-123.17223
41.63,-123.01032
41.64,-122.83662
41.65,-122.66980
41.66,-122.50680
41.67,-122.33671
41.68,-122.17699
41.69,-122.00151
41.70,-121.83947
41.71,-121.67616
41.72,-121.50945
41.73,-121.35027
41.74,-121.17927
41.75,-121.02132
41.76,-120.85616
41.77,-120.69071
41.78,-120.52281
41.79,-120.34975
41.80,-120.19036
41.81,-120.02138
41.82,-119.86255
41.83,-119.69258
41.84,-119.52422
41.85,-119.36392
41.86,-119.19613
41.87,-119.03820
41.88,-118.86655
41.89,-118.70012
41.90,-118.53731
41.91,-118.36809
41.92,-118.20787
41.93,-118.03431
41.94,-117.87291
41.95,-117.70847
41.96,-117.54267
41.97,-117.38239
41.98,-117.21095
41.99,-117.05048
42.00,-116.88480
42.01,-116.71894
42.02,-116.55263
42.03,-116.38105
42.04,-116.21911
42.05,-116.05135
42.06,-115.88930
42.07,-115.72154
42.08,-115.55299
42.09,-115.39363
42.10,-115.22733
42.11,-115.06541
42.12,-114.89409
42.13,-114.72608
42.14,-114.56269
42.15,-114.39463
42.16,-114.23370
42.17,-114.06026
42.18,-113.89748
42.19,-113.73330
42.20,-113.56848
42.21,-113.40268
42.22,-113.22837
42.23,-113.06482
42.24,-112.89848
42.25,-112.73333
42.26,-112.56415
42.27,-112.39199
42.28,-112.23120
42.29,-112.06358
42.30,-111.89927
42.31,-111.72941
42.32,-111.56053
42.33,-111.40363
42.34,-111.23768
42.35,-111.07484
42.36,-110.90403
42.37,-110.73599
42.38,-110.57231
42.39,-110.40209
42.40,-110.23830
42.41,-110.06369
42.42,-109.90223
42.43,-109.74002
42.44,-109.57581
42.45,-109.41528
42.46,-109.24195
42.47,-109.07895
42.48,-108.91080
42.49,-108.74373
42.50,-108.57556
42.51,-108.40239
42.52,-108.24157
42.53,-108.07253
42.54,-107.90976
42.55,-107.74129
42.56,-107.57125
42.57,-107.41225
42.58,-107.24223
42.59,-107.07898
42.60,-106.90675
42.61,-106.74017
42.62,-106.57726
42.63,-106.40703
42.64,-106.24558
42.65,-106.07143
42.66,-105.90769
42.67,-105.74481
42.68,-105.57631
42.69,-105.41595
42.70,-105.24239
42.71,-105.07809
42.72,-104.91230
42.73,-104.74508
42.74,-104.57681
42.75,-104.40270
42.76,-104.24218
42.77,-104.07571
42.78,-103.91418
42.79,-103.74634
42.80,-103.57699
42.81,-103.41652
42.82,-103.24715
42.83,-103.08297
42.84,-102.90836
42.85,-102.73810
42.86,-102.57357
42.87,-102.40378
42.88,-102.24288
42.89,-102.07227
42.90,-101.90935
42.91,-101.74861
42.92,-101.58131
42.93,-101.42233
42.94,-101.24724
42.95,-101.08302
42.96,-100.91635
42.97,-100.75022
42.98,-100.58349
42.99,-100.41064
43.00,-100.24878
43.01,-100.07864
43.02,-99.91714
43.03,-99.75032
43.04,-99.58189
43.05,-99.42247
43.06,-99.25337
43.07,-99.09178
43.08,-98.91879
43.09,-98.75198
43.10,-98.58750
43.11,-98.41991
43.12,-98.25851
43.13,-98.08486
43.14,-97.92244
43.15,-97.75829
43.16,-97.59315
43.17,-97.43383
43.18,-97.25843
43.19,-97.09638
43.20,-96.92904
43.21,-96.76339
43.22,-96.59934
43.23,-96.42567
43.24,-96.26520
43.25,-96.09761
43.26,-95.93589
43.27,-95.76862
43.28,-95.59959
43.29,-95.44000
43.30,-95.27042
43.31,-95.11064
43.32,-94.93655
43.33,-94.76831
43.34,-94.60418
43.35,-94.43634
43.36,-94.27581
43.37,-94.10245
43.38,-93.94269
43.39,-93.77750
43.40,-93.60968
43.41,-93.44955
43.42,-93.27325
43.43,-93.11275
43.44,-92.94571
43.45,-92.77926
43.46,-92.61345
43.47,-92.44261
43.48,-92.28005
43.49,-92.11354
43.50,-91.95094
43.51,-91.78083
43.52,-91.61545
43.53,-91.45415
43.54,-91.28406
43.55,-91.11989
43.56,-90.94656
43.57,-90.78042
43.58,-90.61533
43.59,-90.44782
43.60,-90.28655
43.61,-90.11253
43.62,-89.94925
43.63,-89.78535
43.64,-89.61928
43.65,-89.45859
43.66,-89.28520
43.67,-89.12269
43.68,-88.95676
43.69,-88.79139
43.70,-88.62291
43.71,-88.45004
43.72,-88.28867
43.73,-88.12207
43.74,-87.95972
43.75,-87.79120
43.76,-87.62201
43.77,-87.45883
43.78,-87.28903
43.79,-87.12693
43.80,-86.95341
43.81,-86.78533
43.82,-86.62345
43.83,-86.45386
43.84,-86.29309
43.85,-86.12176
43.86,-85.95850
43.87,-85.79539
43.88,-85.62879
43.89,-85.46623
43.90,-85.29175
43.91,-85.12809
43.92,-84.96140
43.93,-84.79424
43.94,-84.62715
43.95,-84.45308
43.96,-84.29081
43.97,-84.12238
43.98,-83.96110
43.99,-83.79394
44.00,-83.62550
44.01,-83.46477
44.02,-83.29205
44.03,-83.13045
44.04,-82.95887
44.05,-82.78955
44.06,-82.62532
44.07,-82.45871
44.08,-82.29732
44.09,-82.12463
44.10,-81.96084
44.11,-81.79662
44.12,-81.63303
44.13,-81.47107
44.14,-81.29523
44.15,-81.13212
44.16,-80.96532
44.17,-80.79966
44.18,-80.63424
44.19,-80.45982
44.20,-80.30002
44.21,-80.13496
44.22,-79.97197
44.23,-79.80475
44.24,-79.63497
44.25,-79.47288
44.26,-79.30499
44.27,-79.14118
44.28,-78.96864
44.29,-78.79976
44.30,-78.63470
44.31,-78.46703
44.32,-78.30681
44.33,-78.13334
44.34,-77.97145
44.35,-77.80736
44.36,-77.64099
44.37,-77.47648
44.38,-77.30132
44.39,-77.13803
44.40,-76.97168
44.41,-76.80564
44.42,-76.63922
44.43,-76.46699
44.44,-76.30391
44.45,-76.13627
44.46,-75.97478
44.47,-75.80927
44.48,-75.64112
44.49,-75.48099
44.50,-75.31013
44.51,-75.14977
44.52,-74.97708
44.53,-74.81104
44.54,-74.64761
44.55,-74.47737
44.56,-74.31533
44.57,-74.14232
44.58,-73.97975
44.59,-73.81759
44.60,-73.65031
44.61,-73.48699
44.62,-73.31081
44.63,-73.14738
44.64,-72.98041
44.65,-72.81483
44.66,-72.64621
44.67,-72.47725
44.68,-72.31460
44.69,-72.14659
44.70,-71.98427
44.71,-71.81612
44.72,-71.64893
44.73,-71.48864
44.74,-71.32014
44.75,-71.15705
44.76,-70.98392
44.77,-70.81618
44.78,-70.65335
44.79,-70.48511
44.80,-70.32254
44.81,-70.14966
44.82,-69.98648
44.83,-69.82420
44.84,-69.65878
44.85,-69.49577
44.86,-69.32187
44.87,-69.15967
44.88,-68.99241
44.89,-68.82798
44.90,-68.65980
44.91,-68.48876
44.92,-68.32840
44.93,-68.16144
44.94,-68.00076
44.95,-67.83296
44.96,-67.66533
44.97,-67.50396
44.98,-67.33172
44.99,-67.16858
45.00,-66.99469
45.01,-66.82728
45.02,-66.66245
45.03,-66.49429
45.04,-66.32871
45.05,-66.15817
45.06,-65.99404
45.07,-65.82940
45.08,-65.66268
45.09,-65.49978
45.10,-65.32501
45.11,-65.16282
45.12,-64.99551
45.13,-64.83088
45.14,-64.66308
45.15,-64.48939
45.16,-64.32780
45.17,-64.16070
45.18,-63.99596
45.19,-63.82964
45.20,-63.66128
45.21,-63.49908
45.22,-63.33088
45.23,-63.16637
45.24,-62.99429
45.25,-62.82470
45.26,-62.65978
45.27,-62.49156
45.28,-62.32933
45.29,-62.15524
45.30,-61.99088
45.31,-61.82653
45.32,-61.66060
45.33,-61.49926
45.34,-61.32385
45.35,-61.16093
45.36,-60.99439
45.37,-60.82795
45.38,-60.65949
45.39,-60.48694
45.40,-60.32455
45.41,-60.15603
45.42,-59.99317
45.43,-59.82210
45.44,-59.65442
45.45,-59.49367
45.46,-59.32419
45.47,-59.16250
45.48,-58.98721
45.49,-58.82082
45.50,-58.65551
45.51,-58.48626
45.52,-58.32523
45.53,-58.15196
45.54,-57.98845
45.55,-57.82310
45.56,-57.65529
45.57,-57.49261
45.58,-57.31866
45.59,-57.15622
45.60,-56.99007
45.61,-56.82440
45.62,-56.65775
45.63,-56.48689
45.64,-56.32515
45.65,-56.15702
45.66,-55.99520
45.67,-55.82738
45.68,-55.65850
45.69,-55.49475
45.70,-55.32366
45.71,-55.16071
45.72,-54.99036
45.73,-54.82147
45.74,-54.65850
45.75,-54.48923
45.76,-54.32782
45.77,-54.15578
45.78,-53.99346
45.79,-53.82980
45.80,-53.66448
45.81,-53.50187
45.82,-53.32682
45.83,-53.16497
45.84,-52.99846
45.85,-52.83362
45.86,-52.66622
45.87,-52.49502
45.88,-52.33526
45.89,-52.16762
45.90,-52.00618
45.91,-51.83676
45.92,-51.66796
45.93,-51.50673
45.94,-51.33752
45.95,-51.17507
45.96,-51.00338
45.97,-50.83597
45.98,-50.67112
45.99,-50.50384
46.00,-50.34034
46.01,-50.16904
46.02,-50.00536
46.03,-49.84129
46.04,-49.67654
46.05,-49.51261
46.06,-49.34090
46.07,-49.17993
46.08,-49.01359
46.09,-48.84961
46.10,-48.68112
46.11,-48.50784
46.12,-48.34738
46.13,-48.18259
46.14,-48.02014
46.15,-47.85225
46.16,-47.68294
46.17,-47.51999
46.18,-47.34971
46.19,-47.18589
46.20,-47.01485
46.21,-46.84871
46.22,-46.68569
46.23,-46.51916
46.24,-46.35601
46.25,-46.18161
46.26,-46.01718
46.27,-45.85320
46.28,-45.68824
46.29,-45.52745
46.30,-45.35618
46.31,-45.19413
46.32,-45.02856
46.33,-44.86253
46.34,-44.69501
46.35,-44.52329
46.36,-44.36123
46.37,-44.19538
46.38,-44.03353
46.39,-43.86567
46.40,-43.69648
46.41,-43.53425
46.42,-43.36680
46.43,-43.20485
46.44,-43.03224
46.45,-42.86413
46.46,-42.70116
46.47,-42.53457
46.48,-42.37362
46.49,-42.20108
46.50,-42.03737
46.51,-41.87482
46.52,-41.70953
46.53,-41.54439
46.54,-41.36911
46.55,-41.20588
46.56,-41.03859
46.57,-40.87488
46.58,-40.70797
46.59,-40.53839
46.60,-40.37688
46.61,-40.21053
46.62,-40.04829
46.63,-39.87843
46.64,-39.71219
46.65,-39.55086
46.66,-39.38307
46.67,-39.21904
46.68,-39.04712
46.69,-38.87928
46.70,-38.71520
46.71,-38.54709
46.72,-38.38588
46.73,-38.21469
46.74,-38.05174
46.75,-37.88632
46.76,-37.72148
46.77,-37.56008
46.78,-37.38764
46.79,-37.22524
46.80,-37.05683
46.81,-36.89112
46.82,-36.72251
46.83,-36.54939
46.84,-36.38957
46.85,-36.22205
46.86,-36.06261
46.87,-35.89433
46.88,-35.72492
46.89,-35.56042
46.90,-35.39224
46.91,-35.22969
46.92,-35.05736
46.93,-34.89046
46.94,-34.72416
46.95,-34.55558
46.96,-34.39224
46.97,-34.21702
46.98,-34.05375
46.99,-33.88841
47.00,-33.72418
47.01,-33.56150
47.02,-33.38711
47.03,-33.22538
47.04,-33.05882
47.05,-32.89391
47.06,-32.72698
47.07,-32.55316
47.08,-32.39334
47.09,-32.22588
47.10,-32.06209
47.11,-31.89216
47.12,-31.72540
47.13,-31.56333
47.14,-31.39382
47.15,-31.22985
47.16,-31.05614
47.17,-30.88958
47.18,-30.72467
47.19,-30.55645
47.20,-30.39376
47.21,-30.22155
47.22,-30.05774
47.23,-29.89740
47.24,-29.73220
47.25,-29.57212
47.26,-29.39847
47.27,-29.23519
47.28,-29.06982
47.29,-28.90281
47.30,-28.73589
47.31,-28.56497
47.32,-28.40268
47.33,-28.23523
47.34,-28.07563
47.35,-27.90604
47.36,-27.74055
47.37,-27.57859
47.38,-27.40998
47.39,-27.24691
47.40,-27.07340
47.41,-26.90523
47.42,-26.74067
47.43,-26.57256
47.44,-26.41184
47.45,-26.23918
47.46,-26.07558
47.47,-25.91350
47.48,-25.74735
47.49,-25.58329
47.50,-25.41182
47.51,-25.24876
47.52,-25.08489
47.53,-24.91993
47.54,-24.75095
47.55,-24.58098
47.56,-24.41944
47.57,-24.25375
47.58,-24.09206
47.59,-23.92507
47.60,-23.75523
47.61,-23.59437
47.62,-23.42721
47.63,-23.26492
47.64,-23.09348
47.65,-22.92373
47.66,-22.76037
47.67,-22.59334
47.68,-22.43154
47.69,-22.26070
47.70,-22.09684
47.71,-21.93340
47.72,-21.76785
47.73,-21.60506
47.74,-21.43094
47.75,-21.26831
47.76,-21.10160
47.77,-20.93512
47.78,-20.76739
47.79,-20.59470
47.80,-20.43424
47.81,-20.26797
47.82,-20.10525
47.83,-19.93752
47.84,-19.76699
47.85,-19.60718
47.86,-19.43971
47.87,-19.27634
47.88,-19.10539
47.89,-18.93672
47.90,-18.77018
47.91,-18.60301
47.92,-18.43732
47.93,-18.26675
47.94,-18.10439
47.95,-17.94054
47.96,-17.77389
47.97,-17.60961
47.98,-17.43451
47.99,-17.27257
48.00,-17.10729
48.01,-16.94032
48.02,-16.77475
48.03,-16.60151
48.04,-16.44010
48.05,-16.27263
48.06,-16.10930
48.07,-15.94214
48.08,-15.77363
48.09,-15.61070
48.10,-15.44644
48.11,-15.28289
48.12,-15.10960
48.13,-14.94198
48.14,-14.77750
48.15,-14.61024
48.16,-14.44819
48.17,-14.27397
48.18,-14.11076
48.19,-13.94594
48.20,-13.78051
48.21,-13.61649
48.22,-13.44355
48.23,-13.27845
48.24,-13.11131
48.25,-12.94533
48.26,-12.77559
48.27,-12.60433
48.28,-12.44227
48.29,-12.27586
48.30,-12.11444
48.31,-11.94437
48.32,-11.77692
48.33,-11.61354
48.34,-11.44586
48.35,-11.28418
48.36,-11.11035
48.37,-10.94442
48.38,-10.77991
48.39,-10.61082
48.40,-10.44838
48.41,-10.27497
48.42,-10.11274
48.43,-9.94586
48.44,-9.77999
48.45,-9.61579
48.46,-9.44455
48.47,-9.28102
48.48,-9.11452
48.49,-8.94910
48.50,-8.77751
48.51,-8.60393
48.52,-8.44071
48.53,-8.27226
48.54,-8.11255
48.55,-7.94137
48.56,-7.77255
48.57,-7.61460
48.58,-7.44631
48.59,-7.28325
48.60,-7.11009
48.61,-6.94436
48.62,-6.78111
48.63,-6.61575
48.64,-6.45196
48.65,-6.27895
48.66,-6.11705
48.67,-5.95022
48.68,-5.78531
48.69,-5.61975
48.70,-5.44543
48.71,-5.28102
48.72,-5.11251
48.73,-4.94742
48.74,-4.77795
48.75,-4.60704
48.76,-4.44509
48.77,-4.27687
48.78,-4.11584
48.79,-3.94587
48.80,-3.77560
48.81,-3.61515
48.82,-3.44773
48.83,-3.28538
48.84,-3.11236
48.85,-2.94415
48.86,-2.77671
48.87,-2.60970
48.88,-2.44624
48.89,-2.27145
48.90,-2.10986
48.91,-1.94268
48.92,-1.77733
48.93,-1.61542
48.94,-1.44129
48.95,-1.27983
48.96,-1.11250
48.97,-0.94721
48.98,-0.77862
48.99,-0.60451
49.00,-0.44211
49.01,-0.27465
49.02,-0.12675
49.03,-0.04387
49.04,-0.07273
49.05,-0.10980
49.06,-0.10779
49.07,-0.10773
49.08,-0.10484
49.09,-0.10159
49.10,-0.10240
49.11,-0.10325
49.12,-0.10465
49.13,-0.10459
49.14,-0.10608
49.15,-0.10578
49.16,-0.10335
49.17,-0.10153
49.18,-0.10366
49.19,-0.10477
49.20,-0.10499
49.21,-0.10450
49.22,-0.10376
49.23,-0.10547
49.24,-0.10300
49.25,-0.10090
49.26,-0.10237
49.27,-0.10603
49.28,-0.10817
49.29,-0.10535
49.30,-0.10033
49.31,-0.10053
49.32,-0.10422
49.33,-0.10641
49.34,-0.10683
49.35,-0.10319
49.36,-0.10234
49.37,-0.10224
49.38,-0.10278
49.39,-0.10406
49.40,-0.10541
49.41,-0.10515
49.42,-0.10376
49.43,-0.10224
49.44,-0.10231
49.45,-0.10446
49.46,-0.10502
49.47,-0.10398
49.48,-0.10408
49.49,-0.10370
49.50,-0.10398
49.51,-0.10296
49.52,-0.10168
49.53,-0.10366
49.54,-0.10576
49.55,-0.10514
49.56,-0.10336
49.57,-0.10114
49.58,-0.10228
49.59,-0.10480
49.60,-0.10494
49.61,-0.10480
49.62,-0.10389
49.63,-0.10258
49.64,-0.10232
49.65,-0.10279
49.66,-0.10445
49.67,-0.10581
49.68,-0.10405
49.69,-0.10218
49.70,-0.10230
49.71,-0.10333
49.72,-0.10438
49.73,-0.10431
49.74,-0.10340
49.75,-0.10389
49.76,-0.10377
49.77,-0.10310
49.78,-0.10309
49.79,-0.10322
49.80,-0.10416
49.81,-0.10513
49.82,-0.10372
49.83,-0.10280
49.84,-0.10244
49.85,-0.10276
49.86,-0.10429
49.87,-0.10465
49.88,-0.10397
49.89,-0.10357
49.90,-0.10254
49.91,-0.10253
49.92,-0.10386
49.93,-0.10442
49.94,-0.10481
49.95,-0.10369
49.96,-0.10222
49.97,-0.10295
49.98,-0.10378
49.99,-0.10396
50.00,-0.10405
50.01,-0.10336
50.02,-0.10344
50.03,-0.10359
50.04,-0.10258
50.05,-0.10304
50.06,-0.10408
50.07,-0.10432
50.08,-0.10429
50.09,-0.10318
50.10,-0.10261
50.11,-0.10357
50.12,-0.10358
50.13,-0.10382
50.14,-0.10430
50.15,-0.10355
50.16,-0.10327
50.17,-0.10276
50.18,-0.10264
50.19,-0.10416
50.20,-0.10449
50.21,-0.10372
50.22,-0.10327
50.23,-0.10274
50.24,-0.10326
50.25,-0.10416
50.26,-0.10360
50.27,-0.10398
50.28,-0.10386
50.29,-0.10312
50.30,-0.10337
50.31,-0.10309
50.32,-0.10338
50.33,-0.10429
50.34,-0.10375
50.35,-0.10343
50.36,-0.10336
50.37,-0.10284
50.38,-0.10348
50.39,-0.10385
50.40,-0.10357
50.41,-0.10403
50.42,-0.10362
50.43,-0.10302
50.44,-0.10335
50.45,-0.10327
50.46,-0.10404
50.47,-0.10441
50.48,-0.10330
50.49,-0.10312
50.50,-0.10307
50.51,-0.10315
50.52,-0.10391
50.53,-0.10376
50.54,-0.10343
50.55,-0.10385
50.56,-0.10310
50.57,-0.10330
50.58,-0.10377
50.59,-0.10353
50.60,-0.10404
50.61,-0.10382
50.62,-0.10324
50.63,-0.10348
50.64,-0.10317
50.65,-0.10307
50.66,-0.10393
50.67,-0.10361
50.68,-0.10365
50.69,-0.10349
50.70,-0.10277
50.71,-0.10344
50.72,-0.10390
50.73,-0.10383
50.74,-0.10405
50.75,-0.10337
50.76,-0.10302
50.77,-0.10359
50.78,-0.10326
50.79,-0.10359
50.80,-0.10386
50.81,-0.10324
50.82,-0.10351
50.83,-0.10325
50.84,-0.10305
50.85,-0.10379
50.86,-0.10385
50.87,-0.10363
50.88,-0.10379
50.89,-0.10303
50.90,-0.10332
50.91,-0.10381
50.92,-0.10328
50.93,-0.10369
50.94,-0.10357
50.95,-0.10333
50.96,-0.10361
50.97,-0.10312
50.98,-0.10310
50.99,-0.10396
51.00,-0.10358
51.01,-0.10353
51.02,-0.10358
51.03,-0.10295
51.04,-0.10356
51.05,-0.10352
51.06,-0.10354
51.07,-0.10407
51.08,-0.10342
51.09,-0.10293
51.10,-0.10345
51.11,-0.10340
51.12,-0.10369
51.13,-0.10376
51.14,-0.10299
51.15,-0.10359
51.16,-0.10351
51.17,-0.10313
51.18,-0.10363
51.19,-0.10351
51.20,-0.10357
51.21,-0.10385
51.22,-0.10308
51.23,-0.10338
51.24,-0.10374
51.25,-0.10321
51.26,-0.10367
51.27,-0.10361
51.28,-0.10331
51.29,-0.10360
51.30,-0.10302
51.31,-0.10318
51.32,-0.10395
51.33,-0.10344
51.34,-0.10349
51.35,-0.10352
51.36,-0.10310
51.37,-0.10362
51.38,-0.10361
51.39,-0.10339
51.40,-0.10389
51.41,-0.10335
51.42,-0.10313
51.43,-0.10363
51.44,-0.10321
51.45,-0.10351
51.46,-0.10367
51.47,-0.10322
51.48,-0.10362
51.49,-0.10338
51.50,-0.10309
51.51,-0.10386
51.52,-0.10359
51.53,-0.10343
51.54,-0.10365
51.55,-0.10315
51.56,-0.10357
51.57,-0.10359
51.58,-0.10307
51.59,-0.10359
51.60,-0.10364
51.61,-0.10327
51.62,-0.10356
51.63,-0.10314
51.64,-0.10345
51.65,-0.10393
51.66,-0.10330
51.67,-0.10340
51.68,-0.10348
51.69,-0.10306
51.70,-0.10345
51.71,-0.10344
51.72,-0.10327
51.73,-0.10385
51.74,-0.10335
51.75,-0.10325
51.76,-0.10375
51.77,-0.10323
51.78,-0.10345
51.79,-0.10358
51.80,-0.10321
51.81,-0.10360
51.82,-0.10327
51.83,-0.10282
51.84,-0.10365
51.85,-0.10352
51.86,-0.10357
51.87,-0.10369
51.88,-0.10308
51.89,-0.10353
51.90,-0.10371
51.91,-0.10313
51.92,-0.10355
51.93,-0.10337
51.94,-0.10312
51.95,-0.10352
51.96,-0.10321
51.97,-0.10329
51.98,-0.10370
51.99,-0.10323
52.00,-0.10360
52.01,-0.10374
52.02,-0.10305
52.03,-0.10351
52.04,-0.10342
52.05,-0.10338
52.06,-0.10369
52.07,-0.10312
52.08,-0.10302
52.09,-0.10364
52.10,-0.10325
52.11,-0.10339
52.12,-0.10355
52.13,-0.10324
52.14,-0.10374
52.15,-0.10350
52.16,-0.10309
52.17,-0.10362
52.18,-0.10326
52.19,-0.10328
52.20,-0.10368
52.21,-0.10306
52.22,-0.10330
52.23,-0.10351
52.24,-0.10329
52.25,-0.10375
52.26,-0.10352
52.27,-0.10311
52.28,-0.10371
52.29,-0.10323
52.30,-0.10323
52.31,-0.10372
52.32,-0.10323
52.33,-0.10338
52.34,-0.10339
52.35,-0.10315
52.36,-0.10368
52.37,-0.10347
52.38,-0.10294
52.39,-0.10371
52.40,-0.10359
52.41,-0.10342
52.42,-0.10347
52.43,-0.10302
52.44,-0.10360
52.45,-0.10376
52.46,-0.10305
52.47,-0.10338
52.48,-0.10339
52.49,-0.10312
52.50,-0.10361
52.51,-0.10325
52.52,-0.10339
52.53,-0.10373
52.54,-0.10302
52.55,-0.10338
52.56,-0.10376
52.57,-0.10327
52.58,-0.10346
52.59,-0.10330
52.60,-0.10311
52.61,-0.10366
52.62,-0.10304
52.63,-0.10311
52.64,-0.10378
52.65,-0.10331
52.66,-0.10334
52.67,-0.10336
52.68,-0.10320
52.69,-0.10368
52.70,-0.10341
52.71,-0.10313
52.72,-0.10372
52.73,-0.10318
52.74,-0.10314
52.75,-0.10359
52.76,-0.10313
52.77,-0.10346
52.78,-0.10342
52.79,-0.10308
52.80,-0.10360
52.81,-0.10342
52.82,-0.10293
52.83,-0.10364
52.84,-0.10339
52.85,-0.10336
52.86,-0.10354
52.87,-0.10293
52.88,-0.10344
52.89,-0.10357
52.90,-0.10303
52.91,-0.10334
52.92,-0.10337
52.93,-0.10324
52.94,-0.10351
52.95,-0.10306
52.96,-0.10322
52.97,-0.10387
52.98,-0.10319
52.99,-0.10328
53.00,-0.10341
53.01,-0.10309
53.02,-0.10354
53.03,-0.10323
53.04,-0.10304
53.05,-0.10369
53.06,-0.10317
53.07,-0.10307
53.08,-0.10362
53.09,-0.10328
53.10,-0.10351
53.11,-0.10342
53.12,-0.10299
53.13,-0.10365
53.14,-0.10345
53.15,-0.10293
53.16,-0.10341
53.17,-0.10327
53.18,-0.10332
53.19,-0.10354
53.20,-0.10296
53.21,-0.10336
53.22,-0.10357
53.23,-0.10313
53.24,-0.10358
53.25,-0.10341
53.26,-0.10304
53.27,-0.10349
53.28,-0.10311
53.29,-0.10330
53.30,-0.10367
53.31,-0.10291
53.32,-0.10328
53.33,-0.10357
53.34,-0.10313
53.35,-0.10347
53.36,-0.10328
53.37,-0.10313
53.38,-0.10374
53.39,-0.10319
53.40,-0.10309
53.41,-0.10351
53.42,-0.10309
53.43,-0.10339
53.44,-0.10343
53.45,-0.10306
53.46,-0.10351
53.47,-0.10329
53.48,-0.10306
53.49,-0.10367
53.50,-0.10323
53.51,-0.10313
53.52,-0.10344
53.53,-0.10309
53.54,-0.10348
53.55,-0.10341
53.56,-0.10285
53.57,-0.10351
53.58,-0.10342
53.59,-0.10307
53.60,-0.10342
53.61,-0.10315
53.62,-0.10324
53.63,-0.10367
53.64,-0.10305
53.65,-0.10329
53.66,-0.10329
53.67,-0.10281
53.68,-0.10347
53.69,-0.10346
53.70,-0.10311
53.71,-0.10336
53.72,-0.10294
53.73,-0.10326
53.74,-0.10377
53.75,-0.10304
53.76,-0.10325
53.77,-0.10334
53.78,-0.10302
53.79,-0.10352
53.80,-0.10326
53.81,-0.10301
53.82,-0.10350
53.83,-0.10314
53.84,-0.10336
53.85,-0.10363
53.86,-0.10304
53.87,-0.10331
53.88,-0.10358
53.89,-0.10315
53.90,-0.10350
53.91,-0.10312
53.92,-0.10295
53.93,-0.10357
53.94,-0.10320
53.95,-0.10314
53.96,-0.10349
53.97,-0.10303
53.98,-0.10334
53.99,-0.10343
54.00,-0.10297
54.01,-0.10351
54.02,-0.10317
